"Time (s)","Linear Acceleration x (m/s^2)","Linear Acceleration y (m/s^2)","Linear Acceleration z (m/s^2)","Absolute acceleration (m/s^2)"
0,0,0,0,0
-1.961666676E-4,1.628844246E-1,-2.104386601E-1,-3.249935085E-1,4.200435049E-1
9.859833332E-3,2.893667158E-1,-2.359024072E-1,-2.574985135E-1,4.535289697E-1
1.991683333E-2,3.350527659E-1,-1.140750843E-1,-2.107979715E-1,4.119578444E-1
2.997383333E-2,3.034348243E-1,6.590425998E-2,-1.249099749E-1,3.346917477E-1
4.002983333E-2,3.130102247E-1,1.745861650E-1,-8.529684305E-2,3.684172651E-1
5.008683333E-2,3.310436225E-1,2.322467279E-1,-8.101317286E-3,4.044676180E-1
6.014383333E-2,3.437367582E-1,2.107187417E-1,1.397057694E-1,4.267025300E-1
7.020083333E-2,3.550563830E-1,2.017450199E-1,3.122676283E-1,5.140789432E-1
8.025683333E-2,4.099120367E-1,1.993511698E-1,4.778625298E-1,6.603948546E-1
9.031383333E-2,3.576975703E-1,3.204820892E-1,5.481238425E-1,7.287633827E-1
1.003708333E-1,2.345715809E-1,4.750400788E-1,5.505153537E-1,7.640379949E-1
1.104278333E-1,2.384199259E-1,5.764167649E-1,4.564009094E-1,7.729179374E-1
1.204838333E-1,3.760724455E-1,4.588801289E-1,2.005863941E-1,6.262877601E-1
1.305408333E-1,5.191137591E-1,3.705936044E-1,1.580449766E-1,6.571125696E-1
1.405978333E-1,6.050274834E-1,2.538846418E-1,6.296866536E-3,6.561671415E-1
1.506548333E-1,9.069763841E-1,2.356807977E-1,-2.106143689E-1,9.604738477E-1
1.607108333E-1,1.065609006E0,1.238025123E-1,-3.188475001E-1,1.119157426E0
1.707678333E-1,1.083877316E0,-3.063443989E-2,-3.298227239E-1,1.133362931E0
1.808248333E-1,1.035041517E0,-1.062333834E-1,-2.991985166E-1,1.082643166E0
1.908807917E-1,9.726192735E-1,-1.027408415E-1,-2.652571839E-1,1.013363363E0
2.009377917E-1,9.191429780E-1,-3.056193441E-2,-1.191709328E-1,9.273400440E-1
2.109947917E-1,7.175374143E-1,1.102931052E-2,-1.553137422E-1,7.342369816E-1
2.210517917E-1,4.157111590E-1,1.785236800E-1,-5.140222961E-1,6.847666704E-1
2.311077917E-1,3.693510711E-1,1.609916809E-1,-8.880786216E-1,9.752036573E-1
2.411647917E-1,4.879862528E-1,8.919371992E-2,-8.807596618E-1,1.010852949E0
2.512217917E-1,5.999247645E-1,-1.309747070E-2,-5.788439441E-1,8.337515088E-1
2.612787917E-1,5.060770994E-1,-1.114359435E-1,-3.208718061E-1,6.095003823E-1
2.713347917E-1,4.425839388E-1,-2.010009617E-2,-5.606433159E-1,7.145666410E-1
2.813917917E-1,3.098381102E-1,-6.668983340E-2,-6.745207644E-1,7.452687099E-1
2.914487917E-1,1.553064331E-1,-3.584343195E-4,-8.117999393E-1,8.265224486E-1
3.015057917E-1,1.371943903E-1,-2.479131728E-2,-7.051730382E-1,7.188225956E-1
3.115617917E-1,4.696600556E-1,-1.549728495E-1,-2.458140224E-1,5.522876837E-1
3.216187917E-1,7.784740260E-1,-3.823877308E-1,-1.184078711E-1,8.753642726E-1
3.316757917E-1,1.002625284E0,-6.956876850E-1,-3.209010422E-2,1.220765575E0
3.417317917E-1,1.250370934E0,-8.859207067E-1,2.543550503E-1,1.553376794E0
3.517887917E-1,1.564914006E0,-1.108452871E0,5.401529181E-1,1.992332499E0
3.618457917E-1,1.680444170E0,-1.517929582E0,6.671369004E-1,2.360736002E0
3.719027917E-1,1.527078136E0,-1.945966233E0,8.160040873E-1,2.604729330E0
3.819587917E-1,1.192655700E0,-2.456967857E0,9.327759075E-1,2.886033535E0
3.920157917E-1,7.904599410E-1,-2.702990626E0,1.020971215E0,2.995557955E0
4.020727917E-1,6.350713545E-1,-2.652844904E0,1.115894914E0,2.947222959E0
4.121297917E-1,7.544212121E-1,-2.428765567E0,1.103949053E0,2.772500145E0
4.221857917E-1,9.541191217E-1,-2.237398185E0,1.027785560E0,2.640575145E0
4.322427917E-1,1.094975623E0,-2.093832084E0,8.932358658E-1,2.526059129E0
4.422997917E-1,1.014253349E0,-1.957908002E0,1.188869920E0,2.505099855E0
4.523567917E-1,9.675721031E-1,-1.420527833E0,1.982772701E0,2.624020329E0
4.624127917E-1,5.742071021E-1,-1.015271642E0,8.304332614E-1,1.431820416E0
4.724697917E-1,5.995273000E-1,-8.567632735E-1,-2.319151908E-1,1.071102678E0
4.825267917E-1,6.979809630E-1,-4.534661919E-1,-3.913705158E-1,9.197716524E-1
4.925837917E-1,4.618127999E-1,-3.034137744E-1,-8.126577258E-1,9.827225244E-1
5.026397917E-1,6.817976242E-1,-6.618112564E-2,-1.091557633E0,1.288691588E0
5.126967917E-1,8.988412991E-1,-2.515109646E-1,-4.742857879E-1,1.046957714E0
5.227537917E-1,8.998736250E-1,-6.118222404E-1,5.004321975E-1,1.197719241E0
5.328097917E-1,9.316646442E-1,-7.975701553E-1,1.060049912E0,1.621056130E0
5.428667917E-1,9.586729333E-1,-9.694139761E-1,8.918553382E-1,1.629178687E0
5.529237917E-1,6.883967918E-1,-1.028082014E0,2.762236369E-1,1.267731150E0
5.629807917E-1,6.692778584E-1,-1.084761415E0,-3.285462767E-1,1.316276124E0
5.730367917E-1,7.228798690E-1,-1.313166522E0,-6.561751252E-1,1.636315194E0
5.830937917E-1,4.067641881E-1,-1.590488850E0,-1.335237422E0,2.116121656E0
5.931507917E-1,2.291722620E-1,-1.818214219E0,-2.219707142E0,2.878458384E0
6.032077917E-1,9.205531803E-1,-2.098330347E0,-3.031069125E0,3.799708995E0
6.132637917E-1,1.470013404E0,-2.474520907E0,-3.490170279E0,4.523879054E0
6.233207917E-1,1.413084620E0,-2.565986270E0,-4.045282713E0,4.994537607E0
6.333777917E-1,1.036035982E0,-2.450412544E0,-4.920935417E0,5.594059132E0
6.434347917E-1,9.689745578E-1,-3.712139648E0,-4.658261533E0,6.034757076E0
6.534907917E-1,6.905012047E-1,-4.216258807E0,-3.543343688E0,5.550577874E0
6.635477917E-1,5.711294201E-1,-4.414276519E0,-2.202634442E0,4.966248533E0
6.736047917E-1,3.657980105E-1,-4.530808604E0,-8.216899198E-1,4.619221700E0
6.836607917E-1,-2.779123127E-2,-4.141511511E0,3.832575041E-1,4.159299972E0
6.937177917E-1,-4.634967980E-1,-3.186957356E0,1.063984503E0,3.391694192E0
7.037747917E-1,-6.681847215E-1,-2.366973654E0,1.316596498E0,2.789706336E0
7.138317917E-1,-8.821732262E-1,-1.822745080E0,1.384555762E0,2.453084566E0
7.238877917E-1,-1.028620835E0,-1.291534455E0,1.462436582E0,2.205638871E0
7.339447917E-1,-1.039855383E0,-8.834860723E-1,1.562775387E0,2.074635816E0
7.440017917E-1,-8.548798853E-1,-5.469787384E-1,1.584972003E0,1.882057812E0
7.540587917E-1,-6.475893661E-1,-3.576841948E-1,1.426409547E0,1.606846031E0
7.641147917E-1,-5.258544293E-1,-2.782159294E-1,1.149782453E0,1.294575866E0
7.741717917E-1,-5.139644086E-1,-6.356202984E-2,7.967088604E-1,9.502339466E-1
7.842287917E-1,-5.942490184E-1,1.192781561E-1,5.656140339E-1,8.290225629E-1
7.942857917E-1,-7.748010975E-1,1.738063291E-1,5.852425522E-1,9.864249721E-1
8.043417917E-1,-1.214343899E0,7.362353481E-2,8.465528655E-1,1.482127958E0
8.143987917E-1,-1.441342167E0,2.209931767E-1,1.141776445E0,1.852014761E0
8.244557917E-1,-1.610501823E0,9.829621209E-1,1.293950817E0,2.287846011E0
8.345127917E-1,-1.378517050E0,1.272466977E0,1.680598537E0,2.518708579E0
8.445687917E-1,-1.252839628E0,1.194332096E0,2.279842831E0,2.862467402E0
8.546257917E-1,-7.909695259E-1,2.250372134E0,2.709244807E0,3.609683498E0
8.646827917E-1,-6.561529058E-1,2.112110773E0,3.086896001E0,3.797430114E0
8.747387917E-1,-9.811633712E-1,3.059888297E0,3.460544776E0,4.722390083E0
8.847957917E-1,-1.185200207E0,2.536952797E0,4.202977442E0,5.050331514E0
8.948527917E-1,-1.797745456E0,1.805144522E0,4.628126737E0,5.282990873E0
9.049097917E-1,-2.169924825E0,1.902850327E0,4.666441203E0,5.486810240E0
9.149657917E-1,-2.521905865E0,1.853841742E0,4.402062271E0,5.401378586E0
9.250227917E-1,-2.818966055E0,1.648589124E0,3.636471123E0,4.887569738E0
9.350797917E-1,-2.871365586E0,1.355058898E0,2.567929299E0,4.083526152E0
9.451367917E-1,-2.571441722E0,1.464920771E0,1.589710001E0,3.359387338E0
9.551927917E-1,-2.056591168E0,1.789762545E0,1.028890100E0,2.914006183E0
9.652497917E-1,-1.891933283E0,1.444690282E0,7.908710003E-1,2.508389622E0
9.753067917E-1,-2.216095609E0,5.767275444E-1,5.235012174E-1,2.348988705E0
9.853637917E-1,-2.357587411E0,2.008901569E-1,5.101110935E-3,2.366136360E0
9.954197917E-1,-2.110486709E0,3.132414821E-1,-5.989332229E-1,2.216076573E0
1.005476792E0,-2.023648247E0,1.182760164E-1,-1.274539815E0,2.394492260E0
1.015533792E0,-1.895864366E0,-2.336541528E-1,-1.990961727E0,2.759134747E0
1.025589792E0,-1.278013646E0,-2.427056426E-1,-2.482962239E0,2.803092291E0
1.035646792E0,-6.535997191E-1,-1.604130989E-1,-2.848147754E0,2.926580015E0
1.045703792E0,-2.936272895E-1,-4.756008267E-2,-2.991112177E0,3.005866098E0
1.055760792E0,-1.376191905E-1,1.713304353E-1,-2.762922247E0,2.771647976E0
1.065816792E0,-6.011025399E-2,7.010887581E-1,-2.113963171E0,2.227998873E0
1.075873792E0,3.500903428E-2,1.025988419E0,-1.275332698E0,1.637177864E0
1.085930792E0,8.303894073E-2,7.855283993E-1,-4.443199772E-1,9.062949707E-1
1.095987792E0,-5.929515213E-2,5.494713333E-1,1.397952318E-1,5.700678627E-1
1.106043792E0,-2.795764303E-1,5.605366042E-1,3.385286433E-1,7.120153842E-1
1.116100792E0,-4.264733979E-1,5.888172475E-1,2.997838229E-1,7.864195130E-1
1.126157792E0,-6.074546626E-1,6.185178870E-1,2.698414010E-1,9.079537022E-1
1.136214792E0,-7.632408598E-1,6.721415323E-1,1.965658486E-1,1.035832507E0
1.146270792E0,-8.016737312E-1,6.792064306E-1,1.633203346E-1,1.063332346E0
1.156327792E0,-7.488596329E-1,5.399947509E-1,1.336445457E-1,9.328697366E-1
1.166384792E0,-6.782714608E-1,4.481273916E-1,1.024379557E-1,8.193679689E-1
1.176441792E0,-6.920901856E-1,4.749909621E-1,1.323213208E-1,8.497730115E-1
1.186497292E0,-7.235490829E-1,5.987306169E-1,3.026799488E-1,9.867202128E-1
1.196554292E0,-7.504986075E-1,6.404007992E-1,5.162003839E-1,1.113473924E0
1.206611292E0,-7.584128138E-1,5.036911431E-1,6.108147651E-1,1.096352790E0
1.216668292E0,-8.258253631E-1,3.534162390E-1,5.066787779E-1,1.031316611E0
1.226724292E0,-1.197930180E0,-1.409003556E-2,3.754210657E-1,1.255458571E0
1.236781292E0,-1.651670607E0,-4.134379077E-1,7.543668330E-2,1.704299677E0
1.246838292E0,-2.027183474E0,-6.325415567E-1,-2.284343433E-1,2.135828623E0
1.256894292E0,-1.709719132E0,-1.644044083E-1,-4.083870828E-1,1.765488128E0
1.266951292E0,-5.774020207E-1,8.035875249E-1,1.315214217E-1,9.982203605E-1
1.277008292E0,8.785476601E-1,1.961133033E0,2.798243523E0,3.528180208E0
1.287065292E0,2.961404521E0,3.365312929E0,8.112718772E0,9.268843171E0
1.297121292E0,4.639029748E0,2.854029176E0,8.772150212E0,1.032553625E1
1.307178292E0,2.694057834E0,1.315492252E0,4.080167786E0,5.063223938E0
1.317235292E0,-2.677513137E-1,4.587164068E-1,3.405126035E-2,5.322320887E-1
1.327292292E0,-1.470729688E0,-3.223508593E-1,-1.846579939E0,2.382606422E0
1.337348292E0,-1.365286848E0,-7.049002656E-1,-1.873122790E0,2.422701291E0
1.347405292E0,-2.174699369E-1,-4.730748296E-1,-5.565303844E-1,7.621148448E-1
1.357462292E0,1.105854076E0,-1.061752036E-1,6.841616535E-1,1.304708235E0
1.367519292E0,1.323038376E0,8.682676703E-2,7.673803961E-1,1.531940633E0
1.377575292E0,5.036888042E-1,1.920719710E-1,1.954636484E-1,5.734109272E-1
1.387632292E0,-2.441797256E-2,5.001240492E-2,-3.347723919E-1,3.393671057E-1
1.397689292E0,-2.901631066E-1,2.977943078E-1,-4.733280140E-1,6.300122912E-1
1.407745292E0,-6.162845430E-1,4.901226792E-1,-9.375308633E-2,7.929795204E-1
1.417802292E0,-7.892983916E-1,5.774122533E-1,6.848884624E-1,1.193930093E0
1.427859292E0,-9.031667769E-1,5.809737924E-1,9.577750933E-1,1.438948888E0
1.437916292E0,-8.882730415E-1,6.422894499E-1,8.592255360E-1,1.392778969E0
1.447972292E0,-5.711133403E-1,5.677035365E-1,5.227001488E-1,9.600381234E-1
1.458029292E0,-4.567418021E-1,6.209085211E-1,2.701618284E-1,8.167789658E-1
1.468086292E0,-6.587753820E-1,6.765991572E-1,1.231236506E-1,9.523291746E-1
1.478143292E0,-1.207092475E0,8.049262449E-1,2.569816196E-1,1.473437496E0
1.488199292E0,-1.741679721E0,8.231555244E-1,3.462457985E-1,1.957273466E0
1.498256292E0,-1.798279014E0,7.427650800E-1,2.101308042E-1,1.956952307E0
1.508313292E0,-1.406605028E0,8.339772588E-1,-8.505009055E-2,1.637464287E0
1.518370292E0,-9.200915426E-1,8.601432565E-1,-1.539782381E-1,1.268906681E0
1.528426292E0,-5.261155075E-1,8.409029934E-1,-8.301759839E-2,9.953930345E-1
1.538483292E0,-2.227999663E-1,9.530318320E-1,-3.328743857E-1,1.033786658E0
1.548540292E0,8.999566555E-2,7.394675428E-1,-6.907321697E-1,1.015885031E0
1.558596292E0,1.005935100E0,2.688979527E-1,-1.466364741E-2,1.041358035E0
1.568653292E0,1.274198923E0,6.091646808E-1,6.250930810E-1,1.544475918E0
1.578710292E0,1.039717389E0,7.779334509E-1,6.413237822E-1,1.448271002E0
1.588767292E0,5.083124900E-1,6.419666836E-1,5.696836960E-1,9.975180819E-1
1.598823292E0,-6.679157495E-2,3.831926000E-1,7.107366639E-1,8.102124960E-1
1.608880292E0,-3.314014721E-1,1.358305272E-1,5.707028657E-1,6.737793621E-1
1.618937292E0,-5.492722356E-1,2.152743074E-1,2.040841985E-1,6.242542562E-1
1.628994292E0,-6.278588140E-1,4.334540963E-2,-5.624658930E-1,8.440695443E-1
1.639050292E0,-2.101641333E-1,-5.510731781E-1,-3.019075316E-1,6.625698213E-1
1.649107292E0,-1.413856745E-2,-5.562146348E-1,-2.463619065E-1,6.084971717E-1
1.659164292E0,4.544128561E-1,-6.146476150E-1,-4.512892735E-1,8.876625162E-1
1.669221292E0,6.822069293E-1,-5.582649609E-1,-6.317612457E-1,1.084522168E0
1.679277292E0,5.011209995E-1,-4.538927463E-1,-5.440144193E-1,8.678090629E-1
1.689334292E0,6.934101945E-1,-4.153651500E-1,-4.738080704E-1,9.369311572E-1
1.699391292E0,1.121102445E0,-3.776593798E-1,-3.294087410E-1,1.228009535E0
1.709447292E0,1.494468799E0,-3.241178879E-1,-3.074477684E-1,1.559812016E0
1.719504292E0,1.734040918E0,-1.000362119E-1,-2.222368795E-1,1.751083773E0
1.729561292E0,1.537277434E0,1.855157804E-1,-7.827550650E-2,1.550408033E0
1.739618292E0,1.078990213E0,5.683405906E-2,1.309355307E-1,1.088390602E0
1.749674292E0,5.186275631E-1,1.466955310E-1,5.734884793E-1,7.870089986E-1
1.759731292E0,1.052025193E-1,1.874400991E-1,2.274485028E-1,3.129443756E-1
1.769788292E0,9.807944119E-2,5.297539374E-1,-2.073182935E-1,5.772691623E-1
1.779845292E0,1.117157328E-1,8.142601553E-1,-3.066800290E-1,8.772414979E-1
1.789901292E0,-3.015607917E-1,4.040262294E-1,-4.514401317E-2,5.061759448E-1
1.799958292E0,-7.590966457E-1,-8.290825546E-2,2.761020148E-1,8.119937308E-1
1.810015292E0,-9.980337578E-1,-3.276060444E-1,2.181274563E-1,1.072835817E0
1.820072292E0,-7.431571358E-1,-3.577189127E-1,-3.194070786E-1,8.844581567E-1
1.830128292E0,-3.667870671E-1,3.927048504E-2,-1.355818452E0,1.405104479E0
1.840185292E0,-2.214708942E-1,3.625484204E-1,-7.599959475E-1,8.706805122E-1
1.850242292E0,3.670238793E-1,7.352777204E-1,4.627530321E-1,9.431225916E-1
1.860299292E0,8.894626576E-1,1.254399958E0,1.464473459E0,2.123521977E0
1.870355292E0,1.606031919E0,1.578664903E0,1.477197585E0,2.693257156E0
1.880412292E0,1.829325390E0,1.811112191E0,1.269764102E0,2.870341378E0
1.890469292E0,1.587935956E0,1.844568205E0,3.238749361E-1,2.455375213E0
1.900525292E0,1.618858956E0,2.366520495E0,-6.437948155E-1,2.938638347E0
1.910582292E0,1.934415058E0,3.395879248E0,-1.751224131E0,4.282609420E0
1.920639292E0,2.423558621E0,3.400655546E0,-2.230606352E0,4.734310851E0
1.930696292E0,3.267387854E0,2.224010108E0,-1.280963566E0,4.154866064E0
1.940752292E0,3.453578403E0,1.215671510E0,-4.680696130E-3,3.661295251E0
1.950809292E0,3.177516734E0,1.236812118E0,1.401056605E0,3.686363577E0
1.960866292E0,3.336255775E0,1.499916649E0,2.560339906E0,4.464940424E0
1.970923292E0,3.813500839E0,1.672458628E0,2.104341285E0,4.665635943E0
1.980979292E0,3.985124804E0,2.039783054E0,8.474878353E-1,4.556332982E0
1.991036292E0,3.575746034E0,1.028911734E0,3.847035205E-1,3.740670509E0
2.001093292E0,2.420002930E0,-5.757531059E-1,2.980998248E-1,2.505348144E0
2.011150292E0,4.028848529E-1,-1.308692817E0,2.061318934E-2,1.369459016E0
2.021206292E0,-1.629832426E0,-1.744692791E0,-3.006720150E-1,2.406389480E0
2.031263292E0,-2.601913317E0,-2.441957470E0,-8.654325016E-1,3.671795557E0
2.041320292E0,-2.879766573E0,-2.513244969E0,-1.143882027E0,3.989727043E0
2.051377292E0,-3.156473774E0,-2.157675785E0,-1.335358459E0,4.049947370E0
2.061433292E0,-3.870844483E0,-1.331827326E0,-1.381457323E0,4.320373291E0
2.071490292E0,-4.462446467E0,-1.293161443E0,-1.695619888E0,4.945788288E0
2.081547292E0,-4.437830274E0,-2.455326544E0,-2.744654668E0,5.766809796E0
2.091603292E0,-3.542229794E0,-2.906007122E0,-4.364981860E0,6.328138427E0
2.101660292E0,-2.329585680E0,-1.641221632E0,-3.153947192E0,4.250642396E0
2.111717292E0,-1.728901801E0,-1.454810058E0,2.696375378E0,3.517955929E0
2.121774292E0,-1.224073666E0,-1.519967921E0,5.210846216E0,5.564312816E0
2.131830292E0,-6.601237500E-1,-1.590547907E0,4.060339293E0,4.410437755E0
2.141887292E0,-6.875740886E-3,-1.847930061E0,2.590260108E0,3.181876839E0
2.151944292E0,8.374569368E-1,-2.115186993E0,1.045844686E0,2.503825322E0
2.162001292E0,1.548019354E0,-1.893282235E0,-4.225224343E-1,2.481815213E0
2.172057292E0,1.519677899E0,-1.107202443E0,-9.472436732E-1,2.105371403E0
2.182114292E0,8.496501356E-1,-2.966017681E-1,-6.551828527E-1,1.113167792E0
2.192171708E0,2.185285753E-1,2.403252411E-1,-1.463256946E-1,3.562613768E-1
2.202228708E0,-5.082926095E-2,5.013046020E-1,2.067236316E-1,5.446325162E-1
2.212284708E0,-1.099820334E-1,5.006859666E-1,5.667571646E-1,7.641964201E-1
2.222341708E0,-9.313737452E-2,1.470457792E-1,9.918431644E-1,1.007000444E0
2.232398708E0,-2.202991122E-1,2.198050225E-1,1.088058075E0,1.131687378E0
2.242454708E0,-4.680883241E-1,6.228693849E-1,8.480735801E-1,1.151651747E0
2.252511708E0,-2.478552854E-1,1.452707400E0,6.619434035E-1,1.615537094E0
2.262568708E0,1.017698529E0,1.467027816E0,7.863777074E-1,1.950966634E0
2.272625708E0,1.088075616E0,1.730697480E0,1.037140813E0,2.292353241E0
2.282681708E0,4.324752724E-1,1.721281124E0,6.753567700E-1,1.898934000E0
2.292738708E0,4.132893884E-1,8.913173944E-1,-6.945850463E-1,1.203205387E0
2.302795708E0,2.129017997E-1,8.967658299E-1,-1.837843907E0,2.056012246E0
2.312852708E0,3.881656569E-1,1.369986840E0,-1.272588015E0,1.909716412E0
2.322908708E0,1.610556495E0,1.596699178E0,-2.111008573E-1,2.277697096E0
2.332965708E0,2.130221061E0,1.086723155E0,2.509184955E-1,2.404530948E0
2.343022708E0,1.525911031E0,1.212856953E0,2.132273434E-1,1.960839709E0
2.353079708E0,8.225415668E-1,1.828637758E0,6.316235438E-1,2.102246175E0
2.363135708E0,4.761849636E-1,2.023478678E0,9.106089668E-1,2.269455170E0
2.373192708E0,1.127854809E-1,1.885894863E0,1.121206379E0,2.196912320E0
2.383249708E0,7.976186872E-3,1.398178605E0,1.037146953E0,1.740873584E0
2.393305708E0,4.840997547E-2,8.656814468E-1,1.102265201E0,1.402403817E0
2.403362708E0,-1.738862532E-1,4.896908623E-1,3.635028322E-1,6.341670748E-1
2.413419708E0,-1.453799075E-1,-1.396309251E-1,-3.795684958E-1,4.297724464E-1
2.423476708E0,-3.412815124E-2,-1.073636502E0,-7.120143536E-1,1.288729804E0
2.433532708E0,-1.472422457E-1,-1.933205854E0,-9.184251592E-1,2.145336786E0
2.443589708E0,-2.227780393E-1,-2.609377872E0,-5.899267566E-1,2.684491854E0
2.453646708E0,-3.666461492E-1,-2.995965950E0,2.542737740E-1,3.029009166E0
2.463703708E0,-5.964107341E-1,-3.115403516E0,1.124680356E0,3.365464416E0
2.473759708E0,-7.384027648E-1,-2.920983596E0,1.665280001E0,3.442461516E0
2.483816708E0,-7.997684160E-1,-2.779237733E0,1.750297932E0,3.380434106E0
2.493873708E0,-8.408842823E-1,-2.809753767E0,1.439801279E0,3.267235885E0
2.503930708E0,-5.420348445E-1,-2.457487090E0,6.845140944E-1,2.607988519E0
2.513986708E0,7.736041725E-2,-1.514662743E0,2.189256012E-2,1.516795023E0
2.524043708E0,7.676142848E-1,-8.160356623E-1,6.900467299E-2,1.122456029E0
2.534100708E0,1.075123741E0,-1.019409424E-1,2.727187427E-1,1.113848521E0
2.544157708E0,8.870860568E-1,8.044499892E-1,4.101850285E-1,1.265825112E0
2.554213708E0,5.839482710E-1,1.354847229E0,6.476791940E-1,1.611240186E0
2.564270708E0,4.399781272E-1,9.600648630E-1,8.513154957E-1,1.356481982E0
2.574327708E0,2.489867216E-1,7.411451089E-1,7.660864073E-1,1.094613559E0
2.584383708E0,-2.463519663E-2,1.201298761E0,8.031648443E-1,1.445267925E0
2.594440708E0,-1.037360376E-1,1.125634037E0,9.856738403E-1,1.499788675E0
2.604497708E0,-1.341254792E-1,8.523755229E-1,8.260753316E-1,1.194543482E0
2.614554708E0,-1.069923520E-1,4.861228913E-1,5.404915450E-1,7.347747539E-1
2.624610708E0,-2.818673694E-1,1.520697069E-1,2.830292843E-1,4.274107924E-1
2.634667708E0,-5.784092036E-1,-7.692012191E-3,2.081925253E-1,6.147849229E-1
2.644724708E0,-5.810860589E-1,-6.400455809E-1,2.394036468E-1,8.970136340E-1
2.654781708E0,-7.254815876E-1,-9.451854533E-1,-4.629540302E-2,1.192410307E0
2.664837708E0,-7.685834607E-1,-1.104147273E0,-1.670515160E-1,1.355643001E0
2.674894708E0,-8.374648306E-1,-5.848630679E-1,-1.781155443E-1,1.036888276E0
2.684951708E0,-6.616308698E-1,2.785028815E-3,4.184559882E-2,6.629586853E-1
2.695008708E0,-2.991052535E-1,2.824392271E-1,3.755642494E-1,5.570317541E-1
2.705064708E0,2.424314082E-2,3.700346106E-1,3.722607187E-1,5.254439891E-1
2.715121708E0,2.797863454E-2,4.047799355E-1,1.352980652E-1,4.277092080E-1
2.725178708E0,-7.612636238E-2,4.217257512E-1,-1.299040818E-1,4.477978369E-1
2.735235708E0,-1.868755504E-1,4.015499336E-1,-2.762646405E-1,5.220028468E-1
2.745291708E0,-4.147011986E-1,3.155309594E-1,-3.374855731E-1,6.208328136E-1
2.755348708E0,-7.670807263E-1,1.716754210E-1,-3.317698467E-1,8.532036815E-1
2.765405708E0,-1.050257287E0,-1.544249654E-2,-2.257574149E-1,1.074358064E0
2.775461708E0,-1.240246772E0,-1.230844742E-1,-1.297964931E-2,1.246406962E0
2.785518708E0,-1.292271497E0,-1.395636821E-1,2.160422661E-1,1.317618269E0
2.795575708E0,-8.146489951E-1,1.763853532E-1,3.338228041E-1,8.978877673E-1
2.805632708E0,-1.214161174E0,2.661886454E-2,7.024353719E-1,1.402965207E0
2.815688708E0,-1.213141420E0,-1.275979400E-2,9.130572691E-1,1.518403271E0
2.825745708E0,-7.936227000E-1,2.866597474E-1,1.002151952E0,1.310083713E0
2.835802708E0,-4.470868796E-1,6.326529461E-1,9.341008866E-1,1.213540644E0
2.845859708E0,-9.771545202E-2,1.006292365E0,6.672269475E-1,1.211348188E0
2.855915708E0,-6.979835942E-1,7.382852358E-1,5.878129151E-1,1.173784567E0
2.865972708E0,-9.560302842E-1,5.777230328E-1,4.423002758E-1,1.201410563E0
2.876029708E0,-9.889322743E-1,5.913072842E-1,1.763567749E-1,1.165647056E0
2.886086708E0,-5.740088814E-1,9.120416808E-1,-1.661989919E-1,1.090379901E0
2.896142708E0,-8.301286215E-1,8.468592596E-1,-2.601999271E-1,1.214079131E0
2.906199708E0,-1.114839492E0,6.697307253E-1,-1.072584734E-1,1.304956213E0
2.916256708E0,-8.975341541E-1,1.087179238E0,9.811043143E-3,1.409830667E0
2.926312708E0,-5.805972317E-1,9.993680924E-1,3.741522930E-1,1.214833185E0
2.936369708E0,-2.563004190E-1,1.076566542E0,6.681140433E-1,1.292695555E0
2.946426708E0,-1.711357230E-1,1.089469593E0,6.222063106E-1,1.266243311E0
2.956483708E0,-1.555660495E-1,8.958823156E-1,6.073865426E-1,1.093491807E0
2.966539708E0,-1.986766934E-1,6.549056947E-1,6.981072628E-1,9.776132405E-1
2.976596708E0,-3.034555820E-1,4.232507050E-1,8.066467881E-1,9.601590963E-1
2.986653708E0,-4.467261064E-1,2.005635899E-1,8.838914305E-1,1.010472181E0
2.996710708E0,-5.516219392E-1,2.929455042E-4,8.986667597E-1,1.054461377E0
3.006766708E0,-5.808401835E-1,-8.081670642E-2,9.481382972E-1,1.114842092E0
3.016823708E0,-5.080648604E-1,-5.258401036E-2,1.027328308E0,1.147300498E0
3.026880708E0,-4.876744500E-1,-1.867296624E-1,1.157103167E0,1.269481025E0
3.036937708E0,-6.241087022E-1,-3.652650368E-1,1.360597966E0,1.540829985E0
3.046993708E0,-5.283178613E-1,2.585545206E-1,1.256150322E0,1.387041396E0
3.057050708E0,-4.935041240E-1,7.457363427E-1,1.069724130E0,1.394266376E0
3.067107708E0,-6.407305822E-1,9.711850977E-1,1.008976237E0,1.540054941E0
3.077163708E0,-8.190846929E-1,1.074353371E0,9.993908966E-1,1.680451446E0
3.087220708E0,-1.028474070E0,1.069628820E0,1.028991841E0,1.805737781E0
3.097277708E0,-1.163777471E0,1.039551328E0,1.056083161E0,1.884238999E0
3.107334708E0,-1.185924970E0,9.798974490E-1,1.082284534E0,1.880945735E0
3.117390708E0,-1.105628665E0,9.626738906E-1,1.080084811E0,1.820917067E0
3.127447708E0,-8.138385710E-1,1.039004028E0,1.066657265E0,1.696944405E0
3.137504708E0,-9.447697163E-2,1.379314903E0,9.907744396E-1,1.700902552E0
3.147561708E0,-5.365776381E-1,1.070443922E0,1.050324823E0,1.592779955E0
3.157617708E0,-7.087638134E-1,9.278034353E-1,1.133871009E0,1.627522296E0
3.167674708E0,-6.409551153E-1,9.681281734E-1,1.180121316E0,1.655530712E0
3.177731708E0,-5.490637824E-1,1.438522055E0,9.551146102E-1,1.811921813E0
3.187788333E0,-2.834507954E-1,2.649205597E0,6.582818770E-1,2.744443419E0
3.197844333E0,-3.618292129E-1,2.777038595E0,1.247732670E0,3.065893109E0
3.207901333E0,-1.858575502E-1,2.312197230E0,1.140870126E0,2.585030697E0
3.217958333E0,-2.516428193E-1,1.890374415E0,1.081083516E0,2.192163567E0
3.228014333E0,-6.452396625E-1,1.695301945E0,9.529488746E-1,2.049022807E0
3.238071333E0,-9.165066147E-1,1.292559180E0,7.837678027E-1,1.767762873E0
3.248128333E0,-1.095119465E0,9.429658502E-1,5.875340029E-1,1.560021616E0
3.258185333E0,-1.195306242E0,4.953527212E-1,4.353450859E-1,1.365158114E0
3.268241333E0,-1.244765208E0,6.039705992E-2,3.853864753E-1,1.304458111E0
3.278298333E0,-1.341926929E0,-3.723670650E-1,5.530844741E-1,1.498441707E0
3.288355333E0,-1.427684825E0,-7.681563216E-1,8.903099922E-1,1.849594544E0
3.298412333E0,-1.504056478E0,-1.442444367E0,1.530694638E0,2.585702558E0
3.308468333E0,-1.680996878E0,-2.199134883E0,2.150117382E0,3.504989229E0
3.318525333E0,-1.729974034E0,-2.875244336E0,2.578463058E0,4.231821345E0
3.328582333E0,-1.848573693E0,-3.317164031E0,2.699116845E0,4.658973455E0
3.338639333E0,-2.279796492E0,-2.873931051E0,2.506530612E0,4.442932302E0
3.348695333E0,-2.680992231E0,-2.212591665E0,2.327293571E0,4.183249525E0
3.358752333E0,-2.805943721E0,-1.700024741E0,2.251135780E0,3.978821005E0
3.368809333E0,-2.864888332E0,-1.222129467E0,2.260200280E0,3.848336121E0
3.378866333E0,-3.143094175E0,-8.134769207E-1,2.232964973E0,3.940421077E0
3.388922333E0,-3.756292850E0,-4.581503963E-1,2.169802180E0,4.362072817E0
3.398979333E0,-4.129128862E0,-5.057280207E-1,2.142326113E0,4.679212238E0
3.409036333E0,-4.317352196E0,-7.962855220E-1,2.004985543E0,4.826341020E0
3.419092333E0,-4.232985937E0,-1.092923543E0,1.632857190E0,4.666784162E0
3.429149333E0,-3.822089229E0,-1.233196492E0,1.118328087E0,4.168908415E0
3.439206333E0,-3.028831396E0,-1.111631125E0,6.946352593E-1,3.300312337E0
3.449263333E0,-1.992669260E0,-6.047821927E-1,5.789597920E-1,2.161408504E0
3.459319333E0,-1.747727496E0,-4.960409385E-1,5.560267930E-1,1.899940475E0
3.469376333E0,-1.301691361E0,-5.190666890E-1,7.812733805E-1,1.604437198E0
3.479433333E0,-5.570037165E-1,-4.382014507E-1,1.216781019E0,1.408129859E0
3.489490333E0,5.731484637E-1,-3.364177984E-1,1.899344044E0,2.012258406E0
3.499546333E0,1.830865255E0,-3.536612374E-1,2.480880046E0,3.103531803E0
3.509603333E0,2.898307216E0,-6.094354069E-1,2.575117282E0,3.924643328E0
3.519660333E0,3.421656114E0,-1.201362496E0,1.421137698E0,3.894949905E0
3.529717333E0,3.367324955E0,-1.806308995E0,-5.151315494E-1,3.855773600E0
3.539773333E0,3.271552826E0,-2.077253766E0,-2.138181753E0,4.426043641E0
3.549830333E0,3.052039579E0,-2.050035562E0,-2.707204714E0,4.565802094E0
3.559887333E0,2.327816605E0,-1.945010798E0,-2.570847060E0,3.976311325E0
3.569943333E0,1.096381440E0,-1.719923986E0,-2.145572049E0,2.960349675E0
3.580000333E0,-1.125144625E-1,-1.698788640E0,-1.706784123E0,2.410737312E0
3.590057333E0,-8.939188206E-1,-1.879029647E0,-1.807617602E0,2.756324485E0
3.600114333E0,-1.485130941E0,-2.114988772E0,-1.941958698E0,3.232645202E0
3.610170333E0,-1.971538738E0,-2.210573207E0,-1.813681750E0,3.473188792E0
3.620227333E0,-1.798303865E0,-2.091888177E0,-1.381120231E0,3.085026099E0
3.630284333E0,-9.402063299E-1,-2.715518285E0,-7.287608524E-1,2.964644984E0
3.640341333E0,-5.906935459E-1,-2.507559137E0,-2.933309819E-1,2.592839130E0
3.650397333E0,-5.251832420E-1,-1.959823549E0,-2.786198258E-2,2.029162899E0
3.660454333E0,-6.620488726E-1,-1.388920709E0,-1.335726249E-1,1.544425813E0
3.670511333E0,-9.339691050E-1,-7.130357891E-1,-4.480312049E-1,1.257557270E0
3.680568333E0,-1.243395937E0,-7.475782156E-2,-8.507090664E-1,1.508419074E0
3.690624333E0,-1.528578093E0,3.921224678E-1,-1.238550203E0,2.006070193E0
3.700681333E0,-1.519045815E0,7.190619296E-1,-1.342566030E0,2.151054112E0
3.710738333E0,-1.258197140E0,1.040016181E0,-1.103164649E0,1.970194392E0
3.720795333E0,-7.083975584E-1,1.207434829E0,-9.122410709E-1,1.670900877E0
3.730851333E0,1.182415178E-1,7.182748944E-1,-1.031062925E0,1.262137328E0
3.740908333E0,4.663857611E-1,4.110428882E-1,-1.207597090E0,1.358220404E0
3.750965333E0,2.983609030E-1,3.620286030E-1,-1.346872796E0,1.426236400E0
3.761021333E0,1.056597716E-1,4.881004196E-1,-1.456249058E0,1.539502298E0
3.771078333E0,5.510299087E-2,7.377613252E-1,-1.604499364E0,1.766846434E0
3.781135333E0,1.517272063E-1,9.347130901E-1,-2.039442746E0,2.248563190E0
3.791192333E0,3.220891964E-1,1.180136518E0,-2.188794375E0,2.507445806E0
3.801248333E0,5.554622443E-1,1.347440561E0,-2.149793154E0,2.597257202E0
3.811305333E0,7.466239500E-1,1.504514315E0,-2.002240421E0,2.613422536E0
3.821362333E0,8.889862557E-1,1.609665379E0,-1.753512731E0,2.540890807E0
3.831419333E0,9.011075337E-1,1.752623954E0,-1.483204722E0,2.466491792E0
3.841475333E0,8.688941994E-1,1.904846858E0,-1.014220020E0,2.326383660E0
3.851532333E0,9.206192538E-1,1.955179691E0,-8.050189233E-1,2.306148933E0
3.861589333E0,3.130049622E-1,1.793515288E0,-1.173975892E0,2.166307593E0
3.871646333E0,5.239453134E-1,1.665878171E0,-6.325058886E-1,1.857345545E0
3.881702333E0,8.868501216E-1,1.677041675E0,-4.230469295E-1,1.943692523E0
3.891759333E0,1.162277368E0,1.797107817E0,-5.801961127E-1,2.217456361E0
3.901816333E0,1.407121191E0,1.927324140E0,-7.269606408E-1,2.494602205E0
3.911872333E0,1.522061371E0,2.004815535E0,-9.042371097E-1,2.674621636E0
3.921929333E0,1.607173880E0,2.212582895E0,-9.920655048E-1,2.909076299E0
3.931986333E0,1.603593776E0,2.473321350E0,-1.163262331E0,3.168913182E0
3.942043333E0,1.565511592E0,2.696864498E0,-1.275262239E0,3.369005557E0
3.952099333E0,1.691632379E0,2.884530884E0,-1.166960987E0,3.541742011E0
3.962156333E0,1.789766053E0,2.932116694E0,-1.009271522E0,3.580391018E0
3.972213333E0,1.882984704E0,2.822096654E0,-8.519691414E-1,3.497958310E0
3.982270333E0,1.657477038E0,2.520270399E0,-5.796841890E-1,3.071648869E0
3.992326333E0,1.171942815E0,2.003632643E0,4.828104436E-2,2.321707301E0
4.002383333E0,6.671047407E-1,1.202888035E0,9.285673741E-1,1.659579985E0
4.012440333E0,9.041432619E-2,1.686108953E-1,1.803748500E0,1.813866873E0
4.022497333E0,-5.142303108E-1,-9.676621503E-1,2.603140355E0,2.824383571E0
4.032553333E0,-1.264026229E0,-2.095162618E0,3.389552853E0,4.180494857E0
4.042610333E0,-1.867586938E0,-3.041878873E0,4.343690102E0,5.622148321E0
4.052667333E0,-2.411364692E0,-3.814517085E0,4.918829834E0,6.675335737E0
4.062724333E0,-2.612818374E0,-4.005777170E0,5.005680867E0,6.923143183E0
4.072780333E0,-2.190584354E0,-3.490145136E0,4.431965516E0,6.051618892E0
4.082837333E0,-1.498189236E0,-2.522432114E0,3.435331289E0,4.517602885E0
4.092894333E0,-8.927359289E-1,-1.453129569E0,2.675242956E0,3.172615302E0
4.102950333E0,-4.405479383E-1,-4.592824173E-1,2.131501894E0,2.224482670E0
4.113007333E0,-9.522541523E-2,3.817863446E-1,1.675253305E0,1.720843493E0
4.123064333E0,1.913771756E-1,1.096619568E0,1.237245104E0,1.664324232E0
4.133121333E0,5.670252594E-1,1.543390113E0,9.458219227E-1,1.896878962E0
4.143177333E0,6.322383785E-1,1.512816777E0,6.526688424E-1,1.764742640E0
4.153234333E0,2.715172130E-1,1.045328377E0,3.816176525E-1,1.145454078E0
4.163291333E0,3.614463665E-1,3.762186259E-1,2.726737922E-1,5.886721730E-1
4.173348333E0,8.492058934E-1,-2.926929045E-1,2.827704719E-1,9.416893997E-1
4.183404333E0,8.801291858E-1,-9.058798850E-1,4.379494357E-1,1.336804196E0
4.193461958E0,4.457874821E-1,-1.372452611E0,7.050961474E-1,1.606086307E0
4.203518958E0,-2.309527391E-1,-1.688489939E0,6.454071853E-1,1.822330342E0
4.213575958E0,-5.845169127E-1,-2.142520387E0,2.185879245E-1,2.231554237E0
4.223631958E0,-3.778761654E-1,-2.833501648E0,1.214905232E-1,2.861167932E0
4.233688958E0,-3.968069646E-1,-3.482280046E0,1.876903600E-1,3.509837283E0
4.243745958E0,-6.621609199E-1,-3.410337074E0,-2.498573720E-1,3.482999389E0
4.253801958E0,-9.963146764E-1,-2.577352672E0,-1.197770551E0,3.011651378E0
4.263858958E0,-1.110178530E0,-1.296631181E0,-2.073974063E0,2.686097020E0
4.273915958E0,-3.660867168E-1,1.425966328E-1,-2.805592303E0,2.832966900E0
4.283972958E0,8.258453898E-1,1.610297463E0,-3.748299414E0,4.162310299E0
4.294028958E0,1.902754140E0,2.810875263E0,-4.290849983E0,5.471095561E0
4.304085958E0,2.702793574E0,3.520940081E0,-4.527364009E0,6.340278940E0
4.314142958E0,2.951078045E0,3.727966599E0,-4.537203411E0,6.572123811E0
4.324199958E0,2.571123049E0,3.202921132E0,-4.316512243E0,5.958326565E0
4.334255958E0,1.747297726E0,2.040293516E0,-4.018779624E0,4.833884218E0
4.344312958E0,7.536948417E-1,7.780369467E-1,-3.886564722E0,4.034697355E0
4.354369958E0,-4.536679208E-2,-1.758333760E-1,-3.706007380E0,3.710453642E0
4.364426958E0,-9.891091526E-1,-9.118604171E-1,-3.149168263E0,3.424483477E0
4.374482958E0,-2.034933666E0,-1.455604695E0,-2.454782168E0,3.505095654E0
4.384539958E0,-2.988622432E0,-1.907229599E0,-1.910693928E0,4.027423503E0
4.394596958E0,-3.808593271E0,-2.229483687E0,-1.530853098E0,4.671133847E0
4.404653958E0,-3.497053036E0,-2.231668206E0,-8.673369397E-1,4.238159540E0
4.414709958E0,-2.232892906E0,-1.566647998E0,-5.010052246E-1,2.773301807E0
4.424766958E0,-1.104012934E0,-5.647118086E-1,-6.393557556E-1,1.395177324E0
4.434823958E0,-3.147785689E-1,1.095738977E-1,-8.622995634E-1,9.244741876E-1
4.444879958E0,1.670520276E-1,4.372974712E-1,-1.062808628E0,1.161334421E0
4.454936958E0,3.814526148E-1,6.004985225E-1,-1.251419340E0,1.439498155E0
4.464993958E0,4.961843415E-1,6.308332926E-1,-1.378652413E0,1.595252965E0
4.475050958E0,5.751034802E-1,5.747099626E-1,-1.406766411E0,1.624816079E0
4.485106958E0,5.164776881E-1,4.167959636E-1,-1.344840304E0,1.499687808E0
4.495163958E0,2.506184603E-1,2.121223658E-1,-1.191966020E0,1.236360993E0
4.505220958E0,-1.573750319E-1,-4.106265664E-2,-1.072250566E0,1.084515707E0
4.515277958E0,-5.872433963E-1,-2.608027750E-1,-8.958427007E-1,1.102455005E0
4.525333958E0,-9.842552327E-1,-4.545040727E-1,-6.038824524E-1,1.240969916E0
4.535390958E0,-1.160910289E0,-5.967288226E-1,-4.363899833E-1,1.376311812E0
4.545447958E0,-1.042772486E0,-6.454209262E-1,-4.792108977E-1,1.316657022E0
4.555504958E0,-6.766685928E-1,-5.167874444E-1,-5.556445312E-1,1.016705706E0
4.565560958E0,-1.570081922E-1,-3.025214893E-1,-3.403601374E-1,4.816802331E-1
4.575617958E0,5.298227884E-1,7.349950075E-3,6.957733467E-2,5.344223184E-1
4.585674958E0,1.076163815E0,2.965853959E-1,2.343247553E-1,1.140613670E0
4.595731958E0,1.409621606E0,4.913152188E-1,2.346799006E-1,1.511124870E0
4.605787958E0,1.509037136E0,4.787325954E-1,-4.771035612E-2,1.583873182E0
4.615844958E0,1.304547141E0,3.091206568E-1,-3.228873414E-1,1.379005098E0
4.625901958E0,9.335072480E-1,1.037003696E-1,-4.202920870E-1,1.028997078E0
4.635957958E0,5.231955542E-1,-3.056339622E-3,-3.319411701E-1,6.196191326E-1
4.646014958E0,1.175971547E-1,-1.144148076E-1,-1.082664603E-1,1.965743254E-1
4.656071958E0,-2.987447727E-1,-1.579976141E-1,4.480889462E-2,3.409098448E-1
4.666128958E0,-6.177545330E-1,-8.709778547E-2,1.075547811E-1,6.330677043E-1
4.676184958E0,-8.639553487E-1,1.948993921E-2,-2.638906896E-2,8.645779810E-1
4.686241958E0,-1.097002853E0,9.166913867E-2,-3.000943100E-1,1.140997408E0
4.696298958E0,-1.220410824E0,1.416137159E-1,-5.965240239E-1,1.365759106E0
4.706355958E0,-1.157933764E0,1.597190344E-1,-6.243095541E-1,1.325172891E0
4.716411958E0,-7.887019756E-1,1.718233556E-1,-3.801421076E-1,8.922343268E-1
4.726468958E0,-3.133537486E-1,1.260484278E-1,-1.747871630E-1,3.803016307E-1
4.736525958E0,1.319348198E-1,5.684429169E-2,-1.395619279E-1,2.002887962E-1
4.746582958E0,3.752877492E-1,-1.281867546E-1,2.135337375E-2,3.971507337E-1
4.756638958E0,3.738787164E-1,-2.505034894E-1,1.770559558E-1,4.836177253E-1
4.766695958E0,2.647190939E-1,-1.803754932E-1,1.482104715E-1,3.529558911E-1
4.776752958E0,2.207185037E-1,-1.171197295E-1,2.000332475E-2,2.506667548E-1
4.786809958E0,2.566725942E-1,-1.252122760E-2,-2.272988871E-1,3.430778132E-1
4.796865958E0,2.751185131E-1,8.784622908E-2,-6.185318472E-1,6.826337248E-1
4.806922958E0,2.619523376E-1,1.738745588E-1,-9.945482326E-1,1.043061636E0
4.816979958E0,3.308630897E-1,2.579785699E-1,-1.136821514E0,1.211769979E0
4.827035958E0,4.641220115E-1,3.212004197E-1,-1.054905604E0,1.196413300E0
4.837092958E0,5.677140614E-1,3.578589535E-1,-8.669018338E-1,1.096303368E0
4.847149958E0,4.166924679E-1,3.278861260E-1,-5.424449535E-1,7.585436389E-1
4.857206958E0,2.030337462E-1,1.992719400E-1,-1.963103253E-1,3.456439671E-1
4.867262958E0,2.016690060E-2,5.670512795E-2,-2.773334384E-3,6.024837591E-2
4.877319958E0,-1.367255898E-1,-5.547195017E-2,-5.964159966E-4,1.475512788E-1
4.887376958E0,-2.286224775E-1,-1.920535523E-1,-1.468627614E-1,3.327483656E-1
4.897433958E0,-2.137844369E-1,-3.009708077E-1,-2.724054050E-1,4.587939812E-1
4.907489958E0,-1.201985809E-1,-4.097342813E-1,-3.021881980E-1,5.231133597E-1
4.917546958E0,-4.535729036E-2,-4.168357247E-1,-2.700377943E-1,4.987280978E-1
4.927603958E0,5.553700045E-2,-3.510563028E-1,-2.333682239E-1,4.251889157E-1
4.937660958E0,1.986584209E-1,-2.406766587E-1,-1.845855250E-1,3.625772170E-1
4.947716958E0,3.357479998E-1,-1.413365579E-1,-6.534088075E-2,3.700975178E-1
4.957773958E0,4.038132446E-1,8.199550509E-3,5.410022993E-2,4.075036245E-1
4.967830958E0,3.971051726E-1,1.163245082E-1,1.062877625E-1,4.272247626E-1
4.977887958E0,3.521191804E-1,1.330259103E-1,5.839497328E-2,3.809117784E-1
4.987943958E0,1.972431023E-1,1.856871039E-1,-9.034003001E-2,2.855623627E-1
4.998000958E0,3.015964597E-2,2.280893576E-1,-2.471740482E-1,3.376823499E-1
5.008057958E0,-2.016178429E-1,2.565208590E-1,-2.886097938E-1,4.356011005E-1
5.018113958E0,-3.811633238E-1,3.145258230E-1,-2.338248914E-1,5.467047216E-1
5.028170958E0,-4.783051640E-1,2.791495836E-1,-1.282253462E-1,5.684558552E-1
5.038227958E0,-4.867633076E-1,1.959056979E-1,-4.103287239E-2,5.263090886E-1
5.048284958E0,-4.534414874E-1,1.307109976E-1,1.221190989E-2,4.720632141E-1
5.058340958E0,-3.465928307E-1,5.442120552E-2,4.143976551E-2,3.532782361E-1
5.068397958E0,-1.639538804E-1,-6.034618914E-2,-1.005721092E-3,1.747098993E-1
5.078454958E0,8.426203206E-2,-1.006188869E-1,-1.669928245E-3,1.312518157E-1
5.088511958E0,3.166887081E-1,-9.662056088E-2,5.312078476E-2,3.353342935E-1
5.098567958E0,4.655918553E-1,-8.793569148E-2,6.457259316E-2,4.782029709E-1
5.108624958E0,4.246150066E-1,-2.621423721E-2,6.475674391E-2,4.303237455E-1
5.118681958E0,2.415531564E-1,2.240769982E-2,-1.801647741E-2,2.432583520E-1
5.128738958E0,5.137349054E-2,6.590338290E-2,-1.044938368E-1,1.337963128E-1
5.138794958E0,-6.812532485E-2,8.686155796E-2,-1.251625746E-1,1.668881668E-1
5.148851958E0,-1.473248376E-1,9.668604970E-2,-1.147100919E-1,2.102646075E-1
5.158908958E0,-1.321269009E-1,8.261297107E-2,-1.210245184E-1,1.973052330E-1
5.168964958E0,-5.058250844E-2,1.177617538E-1,-1.360050758E-1,1.868791092E-1
5.179021958E0,1.278845997E-1,2.148530155E-1,-1.403916478E-1,2.867509440E-1
5.189078333E0,3.367500664E-1,3.489401954E-1,-1.151486331E-1,4.984165677E-1
5.199135333E0,4.922751854E-1,4.112843782E-1,-7.852225900E-2,6.462626734E-1
5.209191333E0,5.967377396E-1,4.068510193E-1,-1.947941422E-1,7.480430733E-1
5.219248333E0,6.163487162E-1,1.532502598E-1,-3.028799236E-2,6.358370424E-1
5.229305333E0,4.706536438E-1,-2.666681170E-2,1.253947091E-1,4.878009884E-1
5.239362333E0,1.965927458E-1,-2.264556456E-1,1.597517788E-1,3.397815444E-1
5.249418333E0,2.365856543E-2,-2.770609581E-1,1.435526526E-1,3.129374799E-1
5.259475333E0,-1.262538113E-1,-2.389739496E-1,1.787517214E-1,3.240381942E-1
5.269532333E0,-3.380541417E-1,-1.311548012E-1,2.395732892E-1,4.346004435E-1
5.279589333E0,-5.111616920E-1,4.736887872E-2,2.352054191E-1,5.646695274E-1
5.289645333E0,-5.949710034E-1,2.217579925E-1,2.262626874E-1,6.740637254E-1
5.299702333E0,-6.831176332E-1,3.021525300E-1,2.581861460E-1,7.903201491E-1
5.309759333E0,-8.552109839E-1,2.876257074E-1,2.374870026E-1,9.330136392E-1
5.319816333E0,-1.033622982E0,2.323256654E-1,2.315158260E-1,1.084412865E0
5.329872333E0,-1.204869364E0,1.633875775E-1,3.020659912E-1,1.252856555E0
5.339929333E0,-1.275865379E0,7.463327587E-2,3.436420333E-1,1.323439624E0
5.349986333E0,-1.172608813E0,-9.922724962E-3,5.244437885E-1,1.284582102E0
5.360043333E0,-1.026298467E0,-9.106512129E-2,7.134164429E-1,1.253213638E0
5.370099333E0,-9.283824559E-1,-1.355203325E-1,7.347260356E-1,1.191671973E0
5.380156333E0,-7.815302195E-1,-7.210201621E-3,7.144642639E-1,1.058914848E0
5.390213333E0,-5.929193616E-1,1.742926347E-1,6.475463891E-1,8.951243589E-1
5.400269333E0,-3.942632796E-1,2.947522938E-1,5.605398202E-1,7.460075994E-1
5.410326333E0,-2.163395239E-1,3.765606880E-1,4.692343783E-1,6.393603391E-1
5.420383333E0,-8.902341977E-2,3.620040447E-1,4.956088293E-1,6.201614381E-1
5.430440333E0,-9.079264104E-4,3.562100387E-1,4.937529230E-1,6.088336102E-1
5.440496333E0,-5.050854117E-2,3.838229299E-1,4.398661530E-1,5.859636395E-1
5.450553333E0,-1.446370187E-1,5.027716684E-1,1.830307321E-1,5.542557773E-1
5.460610333E0,-3.576145399E-1,5.051783824E-1,2.658740834E-1,6.736337175E-1
5.470667333E0,-9.122820014E-1,2.150828111E-1,5.578045293E-1,1.090717635E0
5.480723333E0,-1.100432976E0,2.672405595E-1,5.718003516E-1,1.268592091E0
5.490780333E0,-1.219694833E0,2.833239108E-1,6.852749634E-1,1.427420645E0
5.500837333E0,-1.332190146E0,3.209963518E-1,9.218533818E-1,1.651539554E0
5.510894333E0,-1.327544679E0,3.905899125E-1,1.117437994E0,1.778652025E0
5.520950333E0,-1.118351622E0,5.105853027E-1,1.226862788E0,1.736836205E0
5.531007333E0,-1.166207574E0,1.491174477E-1,1.437858396E0,1.857340271E0
5.541064333E0,-8.499942443E-1,1.473434025E-1,1.335485344E0,1.589880938E0
5.551121333E0,-5.099155042E-1,8.589092016E-2,1.378637795E0,1.472424274E0
5.561177333E0,-2.647521307E-1,9.371683359E-2,1.462288063E0,1.489014074E0
5.571234333E0,1.995742410E-2,2.790110046E-1,1.421325978E0,1.448589996E0
5.581291333E0,2.502981059E-1,5.196455634E-1,1.398069263E0,1.512375058E0
5.591347333E0,2.514264724E-1,6.011879092E-1,1.471275233E0,1.609128020E0
5.601404333E0,1.507131529E-1,5.952617562E-1,1.478029937E0,1.600507265E0
5.611461333E0,1.390581903E-1,5.960850441E-1,1.403172712E0,1.530865187E0
5.621518333E0,-2.516952981E-1,1.752357906E-1,1.500611883E0,1.531631199E0
5.631574333E0,-5.437963182E-1,4.698413193E-2,1.425183971E0,1.526129515E0
5.641631333E0,-6.230515257E-1,2.296148962E-1,1.210731636E0,1.380864692E0
5.651688333E0,-5.471039419E-1,5.886889011E-1,9.957002802E-1,1.279568831E0
5.661745333E0,-5.033974667E-1,8.093657434E-1,8.813672606E-1,1.298187261E0
5.671801333E0,-5.224820477E-1,8.165005159E-1,8.361763966E-1,1.280176374E0
5.681858333E0,-6.606064376E-1,7.133790207E-1,7.999131346E-1,1.259035947E0
5.691915333E0,-9.351760434E-1,4.834518832E-1,7.636522114E-1,1.300555518E0
5.701972333E0,-1.220873120E0,2.313316387E-1,8.208239472E-1,1.489227133E0
5.712028333E0,-1.442907028E0,-3.764437437E-3,9.627311933E-1,1.734602609E0
5.722085333E0,-1.513099197E0,-9.626680434E-2,1.188902810E0,1.926713879E0
5.732142333E0,-1.354532210E0,-1.455927461E-1,1.521512317E0,2.042291480E0
5.742199333E0,-1.023903229E0,-1.554482281E-1,1.841302242E0,2.112566193E0
5.752255333E0,-5.739495322E-1,-1.101808387E-1,2.051414920E0,2.133040332E0
5.762312333E0,-3.286026292E-1,-3.835428482E-1,2.368010219E0,2.421271815E0
5.772369333E0,-2.345503116E-1,-4.887377661E-1,2.404078184E0,2.464441188E0
5.782425333E0,-3.328728508E-1,-5.720331073E-1,2.422937647E0,2.511703217E0
5.792482333E0,-5.601269337E-1,-5.494184160E-1,2.352342020E0,2.479741066E0
5.802539333E0,-9.727375335E-1,-5.630529535E-1,2.219134261E0,2.487529659E0
5.812596333E0,-1.490524852E0,-7.130492377E-1,2.031640806E0,2.618714936E0
5.822652333E0,-1.956651143E0,-7.841548884E-1,1.712485596E0,2.715877298E0
5.832709333E0,-2.810425612E0,-1.258675150E0,1.640726227E0,3.489231692E0
5.842766333E0,-3.413924341E0,-1.602755724E0,1.414606358E0,4.028004030E0
5.852823333E0,-3.917602035E0,-1.944924259E0,1.244651188E0,4.547471018E0
5.862879333E0,-4.021841518E0,-2.149042956E0,1.163635676E0,4.706128219E0
5.872936333E0,-3.621022194E0,-2.219299006E0,1.244347279E0,4.425549679E0
5.882993333E0,-2.904300028E0,-2.267980000E0,1.425225048E0,3.950943985E0
5.893050333E0,-2.250895606E0,-2.324191039E0,1.621258946E0,3.618960566E0
5.903106333E0,-1.858012561E0,-2.346693463E0,1.616782025E0,3.401935479E0
5.913163333E0,-1.518939104E0,-2.176389214E0,1.467043018E0,3.032500821E0
5.923220333E0,-1.104185499E0,-1.853413580E0,1.274205501E0,2.505587191E0
5.933277333E0,-6.155599268E-1,-1.372995232E0,1.287111329E0,1.980072096E0
5.943333333E0,-2.010624305E-1,-1.024295357E0,1.497224007E0,1.825181308E0
5.953390333E0,2.412522440E-1,-8.092189783E-1,1.656488128E0,1.859298501E0
5.963447333E0,8.754279513E-1,-6.140664017E-1,1.903822865E0,2.183573480E0
5.973503333E0,1.654047500E0,-4.225560558E-1,2.115386821E0,2.718324513E0
5.983560333E0,2.405774900E0,-2.378857827E-1,2.033971506E0,3.159332620E0
5.993617333E0,3.115586242E0,-2.309240878E-2,1.595714507E0,3.500530771E0
6.003674333E0,3.525393906E0,2.122299546E-1,1.000722892E0,3.670815992E0
6.013730333E0,3.415180323E0,3.934445232E-1,3.204987538E-1,3.452676452E0
6.023787333E0,2.950950868E0,4.543777728E-1,-2.437552178E-1,2.995661328E0
6.033844333E0,2.515739391E0,4.379009038E-1,-5.599562681E-1,2.614240408E0
6.043901333E0,2.018640399E0,2.143103939E-1,-9.362865758E-1,2.235502306E0
6.053957333E0,1.268048236E0,-2.069902647E-1,-1.199014839E0,1.757392353E0
6.064014333E0,5.452618497E-1,-5.887643301E-1,-1.272914874E0,1.504747885E0
6.074071333E0,6.056477451E-2,-1.023269756E0,-1.395002983E0,1.731121719E0
6.084128333E0,-3.466056946E-1,-1.398173343E0,-1.546233029E0,2.113258334E0
6.094184333E0,-4.270364117E-1,-1.836709839E0,-1.612584894E0,2.481187855E0
6.104241333E0,-4.066975664E-1,-2.367446401E0,-1.603123514E0,2.887942239E0
6.114298333E0,-3.521408151E-1,-2.809839721E0,-1.586568731E0,3.245982555E0
6.124355333E0,-1.148117604E-1,-3.116906835E0,-1.646622559E0,3.526989625E0
6.134411333E0,-1.129183589E-1,-3.283290526E0,-1.544592301E0,3.630222116E0
6.144468333E0,-7.422427775E-1,-3.061807353E0,-1.473241944E0,3.477934794E0
6.154525333E0,-1.621125045E0,-2.313116412E0,-1.146721435E0,3.048528169E0
6.164582333E0,-2.127763330E0,-1.368502817E0,-8.304531419E-1,2.662673313E0
6.174638333E0,-2.293732015E0,-6.465681499E-1,-8.321552664E-1,2.524230441E0
6.184695333E0,-2.110279571E0,-1.296035349E-2,-9.890094575E-1,2.330576655E0
6.194752667E0,-1.613293430E0,4.909912831E-1,-1.083933741E0,2.004669670E0
6.204809667E0,-1.111143613E0,5.810401583E-1,-1.023599539E0,1.618642583E0
6.214865667E0,-6.409288028E-1,6.519253689E-1,-8.019351017E-1,1.216098814E0
6.224922667E0,-2.180063824E-1,7.336793840E-1,-5.554071343E-1,9.456687084E-1
6.234979667E0,3.705322087E-2,8.321611136E-1,-5.188591129E-1,9.813663124E-1
6.245035667E0,2.659741987E-1,1.013070458E0,-4.891333303E-1,1.155986782E0
6.255092667E0,4.473452535E-1,1.231653412E0,-5.342139012E-1,1.415087416E0
6.265149667E0,6.842942391E-1,1.510769666E0,-7.590346652E-1,1.823956473E0
6.275206667E0,8.239092305E-1,1.734537932E0,-1.225989799E0,2.278266719E0
6.285262667E0,9.333891343E-1,1.766859586E0,-1.546473935E0,2.526774565E0
6.295319667E0,9.352532266E-1,1.690786141E0,-1.676162254E0,2.557924212E0
6.305376667E0,8.698091425E-1,1.533135266E0,-1.558702801E0,2.353003636E0
6.315433667E0,8.907379353E-1,1.303026280E0,-1.277670707E0,2.030697908E0
6.325489667E0,7.032518625E-1,1.202940660E0,-9.841933984E-1,1.705950192E0
6.335546667E0,5.377171142E-1,1.090244349E0,-6.317179763E-1,1.369978115E0
6.345603667E0,3.780555287E-1,1.040968108E0,-3.434344572E-1,1.159520509E0
6.355660667E0,1.755208058E-1,1.033540390E0,-2.163423014E-1,1.070428551E0
6.365716667E0,1.030580895E-2,1.089642670E0,-1.500530022E-1,1.099974210E0
6.375773667E0,-6.168453458E-2,1.341348347E0,-1.837867588E-1,1.355285189E0
6.385830667E0,8.535029026E-2,1.629641222E0,-3.696831930E-1,1.673224685E0
6.395887667E0,2.640426989E-1,2.006948599E0,-5.631728214E-1,2.101124664E0
6.405943667E0,5.616578809E-1,2.482435990E0,-7.186409301E-1,2.644691439E0
6.416000667E0,8.403986710E-1,2.800929149E0,-9.397802871E-1,3.071589330E0
6.426057667E0,1.004245109E0,3.041059093E0,-1.085564237E0,3.381567441E0
6.436113667E0,1.079692609E0,3.165564440E0,-1.197353937E0,3.552490789E0
6.446170667E0,1.065924755E0,3.135329658E0,-1.326009931E0,3.567182359E0
6.456227667E0,1.022289836E0,3.033787495E0,-1.229051401E0,3.429214257E0
6.466284667E0,1.049040262E0,2.841062098E0,-1.062739046E0,3.209600224E0
6.476340667E0,9.895043512E-1,2.638083608E0,-8.569506767E-1,2.944990398E0
6.486397667E0,9.388696564E-1,2.383739083E0,-5.087323201E-1,2.611990969E0
6.496454667E0,8.558437988E-1,2.055332555E0,1.834914744E-2,2.226476411E0
6.506511667E0,8.471280123E-1,1.479411634E0,7.727534026E-1,1.871745835E0
6.516567667E0,7.141617436E-1,5.868803573E-1,1.568751826E0,1.820834381E0
6.526624667E0,4.990072310E-1,-3.753123075E-1,2.656970115E0,2.729351156E0
6.536681667E0,1.432276845E-1,-1.370586179E0,3.687648293E0,3.936720790E0
6.546738667E0,-1.813806661E-1,-2.279484982E0,4.467464255E0,5.018683851E0
6.556794667E0,-4.476222653E-1,-2.963029169E0,4.860538065E0,5.710055852E0
6.566851667E0,-6.999739864E-1,-3.134684710E0,4.925865789E0,5.880507256E0
6.576908667E0,-8.567428082E-1,-2.841142205E0,4.325628929E0,5.245680404E0
6.586965667E0,-8.099681528E-1,-2.237930574E0,3.500371331E0,4.232845511E0
6.597021667E0,-7.341962048E-1,-1.517862924E0,2.836405960E0,3.299719790E0
6.607078667E0,-7.519528831E-1,-6.975891995E-1,2.351367728E0,2.565344815E0
6.617135667E0,-4.855731069E-1,8.413207769E-2,2.116419878E0,2.173037632E0
6.627192667E0,-1.794727196E-1,5.978842324E-1,2.084882921E0,2.176330123E0
6.637248667E0,-1.277029980E-1,8.180915433E-1,2.051150918E0,2.211967884E0
6.647305667E0,-6.740794457E-2,7.874696749E-1,1.792665102E0,1.959158107E0
6.657362667E0,4.118725715E-2,6.056236070E-1,1.573333704E0,1.686373413E0
6.667419667E0,-3.041798327E-1,6.353526056E-2,1.332296273E0,1.368055356E0
6.677475667E0,-8.785608163E-1,-5.771973681E-1,1.101593794E0,1.522673569E0
6.687532667E0,-1.192323797E0,-1.076540229E0,9.610580125E-1,1.871952832E0
6.697589667E0,-1.501220140E0,-1.379915997E0,7.374739346E-1,2.168339888E0
6.707645667E0,-1.173721319E0,-1.758778734E0,3.861068523E-1,2.149419194E0
6.717702667E0,-5.431982942E-1,-2.127891238E0,-2.814279512E-1,2.214088345E0
6.727759667E0,1.802721802E-1,-2.430343730E0,-3.722005655E-1,2.465279288E0
6.737816667E0,7.268379224E-1,-2.459283355E0,-2.254855925E-1,2.574337145E0
6.747872667E0,7.384861607E-1,-1.871156371E0,-6.413202739E-1,2.111369146E0
6.757929667E0,6.259589075E-1,-8.978563356E-1,-1.462924824E0,1.827052160E0
6.767986667E0,1.110838461E0,3.546780682E-1,-2.794669704E0,3.028190446E0
6.778043667E0,2.371816172E0,1.816529928E0,-4.097229377E0,5.070757488E0
6.788099667E0,3.595108504E0,3.016192054E0,-4.503137240E0,6.503880739E0
6.798156667E0,4.270498457E0,3.703380811E0,-4.251100026E0,7.072767346E0
6.808213667E0,4.201375012E0,3.841084494E0,-3.756094630E0,6.820097430E0
6.818270667E0,3.612782882E0,3.347001788E0,-3.280006145E0,5.917183573E0
6.828326667E0,2.372098007E0,2.256440520E0,-2.957611139E0,4.412010475E0
6.838383667E0,8.755956933E-1,7.466952860E-1,-2.657397546E0,2.895856244E0
6.848440667E0,-5.660848079E-1,-8.036822498E-1,-2.441438237E0,2.631915241E0
6.858497667E0,-1.603525802E0,-1.866839372E0,-2.247098424E0,3.332541908E0
6.868553667E0,-2.402494319E0,-2.451527608E0,-2.065624824E0,4.006091921E0
6.878610667E0,-3.073200360E0,-2.583650708E0,-1.773520003E0,4.389212303E0
6.888667667E0,-2.905511279E0,-2.119147897E0,-1.441561437E0,3.874388078E0
6.898724667E0,-2.058691780E0,-1.127638462E0,-8.666591012E-1,2.502174723E0
6.908780667E0,-1.600013526E0,-4.315128207E-2,-1.142927762E0,1.966771259E0
6.918837667E0,-9.923589619E-1,7.102454978E-1,-1.599481868E0,2.011856661E0
6.928894667E0,-1.663240675E-1,1.088640457E0,-1.607456886E0,1.948517226E0
6.938951667E0,3.791408816E-1,1.258845304E0,-1.437616321E0,1.948122171E0
6.949007667E0,6.005234463E-1,1.209461474E0,-1.368898673E0,1.922838798E0
6.959064667E0,5.187331054E-1,8.799983543E-1,-1.383230783E0,1.719537304E0
6.969121667E0,3.306363639E-1,4.464220512E-1,-1.202812094E0,1.324903765E0
6.979177667E0,-2.765877357E-2,6.772128224E-2,-9.081966249E-1,9.111379090E-1
6.989234667E0,-4.836707883E-1,-1.611217815E-1,-6.560676096E-1,8.308564065E-1
6.999291667E0,-7.897293314E-1,-2.974379200E-1,-3.647481430E-1,9.193383169E-1
7.009348667E0,-9.575487330E-1,-3.163571709E-1,-8.066935658E-2,1.011676322E0
7.019404667E0,-9.516362478E-1,-2.650958008E-1,1.409653328E-1,9.978770248E-1
7.029461667E0,-8.612616096E-1,-8.400051534E-2,5.373942018E-2,8.670153240E-1
7.039518667E0,-6.275702539E-1,6.803527772E-2,7.170203011E-2,6.353065431E-1
7.049575667E0,-4.837918257E-1,-7.069108307E-2,4.541578810E-1,6.673163722E-1
7.059631667E0,-4.714702440E-1,1.463675022E-2,2.922046620E-1,5.548711471E-1
7.069688667E0,-3.529814254E-1,1.597365761E-1,3.125067794E-1,4.977671621E-1
7.079745667E0,-1.359964603E-1,4.505373216E-1,2.842694056E-1,5.498072483E-1
7.089802667E0,1.148857368E-1,6.863830107E-1,1.105170171E-1,7.046519574E-1
7.099858667E0,2.084860921E-1,4.852691978E-1,3.302957636E-1,6.229349375E-1
7.109915667E0,8.201725856E-2,2.147682309E-1,4.817333865E-1,5.337783055E-1
7.119972667E0,-9.708873100E-2,6.435562491E-2,3.738621980E-1,3.915875525E-1
7.130029667E0,-1.964746503E-1,2.280238688E-2,1.425498551E-1,2.438087329E-1
7.140085667E0,-1.472986987E-1,8.439988017E-2,1.596629194E-1,2.330504114E-1
7.150142667E0,-1.190173703E-1,2.044438022E-1,2.617096782E-1,3.527808928E-1
7.160199667E0,-1.726191433E-1,3.488308525E-1,4.691326368E-1,6.095619437E-1
7.170256667E0,-1.799954972E-1,4.591058314E-1,6.882839406E-1,8.467061629E-1
7.180312667E0,-1.434068194E-1,5.129335445E-1,7.849957180E-1,9.486224825E-1
7.190368958E0,-2.755482104E-3,5.225697559E-1,8.102451646E-1,9.641493501E-1
7.200425958E0,1.994419478E-1,5.034019983E-1,8.407009721E-1,9.999843933E-1
7.210482958E0,3.833400229E-1,5.096281135E-1,9.222158360E-1,1.121228093E0
7.220538958E0,5.730024295E-1,5.072991675E-1,1.084393040E0,1.327249974E0
7.230595958E0,7.345455028E-1,5.232281524E-1,1.284129249E0,1.569175810E0
7.240652958E0,7.985147730E-1,5.726955968E-1,1.448390400E0,1.750268791E0
7.250708958E0,6.762220117E-1,6.049728119E-1,1.564785075E0,1.808817471E0
7.260765958E0,3.734101717E-1,5.899536538E-1,1.574751070E0,1.722591478E0
7.270822958E0,-1.352216128E-1,5.255933511E-1,1.402502621E0,1.503844027E0
7.280879958E0,-6.963910320E-1,3.704848462E-1,1.080342089E0,1.337669062E0
7.290935958E0,-1.178691671E0,2.229093093E-1,7.060688317E-1,1.391953955E0
7.300992958E0,-1.403950831E0,2.902791739E-2,4.678766549E-1,1.480144965E0
7.311049958E0,-1.417005470E0,-1.573707926E-1,4.407292386E-1,1.492284266E0
7.321106958E0,-1.347096014E0,-2.442884839E-1,5.064986106E-1,1.459755245E0
7.331162958E0,-1.292892325E0,-2.316947508E-1,5.509889051E-1,1.424374176E0
7.341219958E0,-1.286273130E0,-1.576678312E-1,5.767986611E-1,1.418469036E0
7.351276958E0,-1.344223423E0,-1.165817857E-2,5.690708347E-1,1.459765097E0
7.361333958E0,-1.603148803E0,-2.381541699E-1,8.897437625E-1,1.848904394E0
7.371389958E0,-1.797848659E0,-4.159042633E-1,1.130104160E0,2.163878825E0
7.381446958E0,-1.918998436E0,-5.578822607E-1,1.432226357E0,2.458670363E0
7.391503958E0,-2.074345507E0,-6.853211564E-1,1.657355855E0,2.742152950E0
7.401560958E0,-2.097638037E0,-8.591980541E-1,1.831260234E0,2.914072867E0
7.411616958E0,-1.865696534E0,-8.373967105E-1,1.579310728E0,2.583849683E0
7.421673958E0,-1.984867759E0,-1.222462758E0,1.724564921E0,2.899696429E0
7.431730958E0,-1.983922556E0,-1.153029996E0,1.439674541E0,2.708890855E0
7.441787958E0,-1.956149451E0,-1.612850357E0,1.566842126E0,2.980402858E0
7.451843958E0,-1.998404502E0,-2.058673654E0,1.576826831E0,3.273857147E0
7.461900958E0,-2.140890768E0,-2.377103662E0,1.498352519E0,3.532576309E0
7.471957958E0,-2.297531097E0,-2.443508736E0,1.535443747E0,3.688762881E0
7.482014958E0,-2.214163982E0,-2.089456320E0,1.634732685E0,3.455531913E0
7.492070958E0,-1.890201045E0,-1.544043247E0,1.870537151E0,3.075034760E0
7.502127958E0,-1.300060573E0,-1.092389107E0,2.266254487E0,2.831851136E0
7.512184958E0,-2.856706177E-1,-9.296938401E-1,2.444729050E0,2.631090737E0
7.522240958E0,7.982561798E-1,-9.758435744E-1,2.288855145E0,2.613109543E0
7.532297958E0,1.472411786E0,-9.287752426E-1,1.616900139E0,2.375917923E0
7.542354958E0,1.706888057E0,-8.260829329E-1,4.107411718E-1,1.940254664E0
7.552411958E0,1.674606018E0,-7.577623111E-1,-9.144144809E-1,2.052964412E0
7.562467958E0,1.811402797E0,-7.044199169E-1,-1.581027471E0,2.505401241E0
7.572524958E0,2.208419677E0,-4.770760792E-1,-1.713052922E0,2.835360536E0
7.582581958E0,2.657921164E0,-1.396309251E-1,-1.261834400E0,2.945550503E0
7.592638958E0,2.793963946E0,6.106188834E-2,-6.250433797E-1,2.863676363E0
7.602694958E0,2.865234780E0,1.955460942E-1,-8.060065180E-1,2.982860226E0
7.612751958E0,2.736027394E0,1.811818242E-1,-1.387700980E0,3.073172101E0
7.622808958E0,2.304977965E0,4.020370066E-2,-1.877480135E0,2.973124857E0
7.632865958E0,1.552252446E0,-4.940429449E-2,-1.753500452E0,2.342368945E0
7.642921958E0,9.662531175E-1,-2.259334892E-1,-1.422868474E0,1.734717764E0
7.652978958E0,6.909178188E-1,-3.391110259E-1,-1.028226441E0,1.284372739E0
7.663035958E0,6.828355050E-1,-5.511784279E-1,-6.037209231E-1,1.065148318E0
7.673092958E0,7.435725805E-1,-5.681610811E-1,-7.620429115E-1,1.206820863E0
7.683148958E0,8.789740683E-1,-4.873204011E-1,-1.374275042E0,1.702559390E0
7.693205958E0,6.367484821E-1,-5.109665412E-1,-1.651604679E0,1.842371692E0
7.703262958E0,7.245305380E-1,-4.627925009E-1,-1.566872531E0,1.787235555E0
7.713319958E0,9.116234587E-1,-5.794830447E-1,-1.568333312E0,1.904344325E0
7.723375958E0,9.949332717E-1,-7.599930239E-1,-1.528099059E0,1.975491925E0
7.733432958E0,8.518603832E-1,-9.822357506E-1,-1.381332777E0,1.896980080E0
7.743489958E0,5.762021720E-1,-1.073514880E0,-1.095937490E0,1.638756273E0
7.753546958E0,7.963001400E-2,-1.158639230E0,-1.155669137E0,1.638400732E0
7.763602958E0,-2.250869586E-1,-1.055000841E0,-1.118832263E0,1.554180345E0
7.773659958E0,-3.967398678E-1,-9.302370465E-1,-1.328029559E0,1.669253125E0
7.783716958E0,-4.114823064E-1,-9.089403176E-1,-1.718905401E0,1.987492381E0
7.793773958E0,-1.611013162E-1,-8.634612590E-1,-1.829344394E0,2.029290490E0
7.803829958E0,2.087913533E-1,-7.236765522E-1,-1.753493435E0,1.908413165E0
7.813886958E0,2.828573030E-1,-6.267355639E-1,-1.827192911E0,1.952290873E0
7.823943958E0,3.016226260E-1,-5.137463075E-1,-1.785786438E0,1.882536767E0
7.833999958E0,3.234042352E-1,-3.157572466E-1,-1.664857832E0,1.725121601E0
7.844056958E0,9.912609279E-2,-1.470826167E-1,-1.708067002E0,1.717251339E0
7.854113958E0,-2.049959256E-1,-1.498290539E-2,-1.589786600E0,1.603018793E0
7.864170958E0,-1.559684841E-1,1.288129914E-1,-1.367593867E0,1.382473124E0
7.874226958E0,5.253942534E-2,2.674861425E-1,-1.184738862E0,1.215695438E0
7.884283958E0,1.532974760E-1,3.420691323E-1,-1.233635910E0,1.289328882E0
7.894340958E0,1.251283684E-1,4.335657781E-1,-1.381407622E0,1.453245819E0
7.904397958E0,1.439471935E-1,6.428002042E-1,-1.505596050E0,1.643390508E0
7.914453958E0,-9.020514205E-2,8.349133980E-1,-1.584431720E0,1.793220908E0
7.924510958E0,-2.168957403E-1,1.058567058E0,-1.395961634E0,1.765309282E0
7.934567958E0,-1.883133808E-1,1.219805199E0,-9.009591606E-1,1.528108001E0
7.944624958E0,-3.824064419E-2,1.365817775E0,-3.675127065E-1,1.414915592E0
7.954680958E0,1.514211045E-1,1.571068493E0,9.727486432E-2,1.581343404E0
7.964737958E0,2.451183499E-1,1.880781473E0,5.264365196E-1,1.968389536E0
7.974794958E0,2.147189681E-1,2.185620798E0,7.180208328E-1,2.310540289E0
7.984851958E0,1.600801000E-1,2.367123050E0,5.557199603E-1,2.436744108E0
7.994907958E0,1.474609315E-1,2.375588064E0,1.066359642E-1,2.382547923E0
8.004964958E0,3.000818847E-1,2.337023338E0,-2.616757643E-1,2.370696401E0
8.015021958E0,3.059346552E-1,2.134833053E0,-7.917036438E-1,2.297368677E0
8.025078958E0,2.619499987E-1,1.769670927E0,-1.158171161E0,2.131129613E0
8.035134958E0,1.224520978E-1,1.189560476E0,-1.208292616E0,1.700005791E0
8.045191958E0,-1.411564636E-1,5.338952279E-1,-9.339500284E-1,1.085003188E0
8.055248958E0,-4.171539594E-1,-1.278996563E-1,-3.937219736E-1,5.877012340E-1
8.065305958E0,-7.296791576E-1,-6.367150068E-1,9.188080788E-2,9.727691174E-1
8.075361958E0,-9.928953709E-1,-8.442461389E-1,4.303305137E-1,1.372507600E0
8.085418958E0,-1.056837305E0,-8.646195924E-1,5.600033382E-1,1.475830569E0
8.095475958E0,-9.210279742E-1,-6.638987124E-1,4.796114320E-1,1.232510103E0
8.105532958E0,-6.404499158E-1,-1.579824114E-1,1.197968772E-1,6.704370431E-1
8.115588958E0,-3.228700921E-1,4.233349049E-1,-2.507318231E-1,5.884929781E-1
8.125645958E0,-9.120033816E-2,8.342509085E-1,-4.847297922E-1,9.691517174E-1
8.135702958E0,1.803469880E-1,9.057377976E-1,-6.069313368E-1,1.105102548E0
8.145759958E0,4.596113232E-1,6.051920825E-1,-6.068768115E-1,9.725222309E-1
8.155815958E0,5.181809820E-1,2.249540806E-2,-4.131899858E-1,6.631316143E-1
8.165872958E0,3.651416606E-1,-6.283961731E-1,-1.995375498E-1,7.536746091E-1
8.175929958E0,2.298420605E-1,-1.303928506E0,-2.333544829E-1,1.344437145E0
8.185985958E0,1.607133535E-1,-1.709722933E0,-4.231643124E-1,1.768629222E0
8.196043292E0,-2.906840935E-2,-1.639016063E0,-6.846034107E-1,1.776485422E0
8.206100292E0,1.220923479E-1,-1.106062821E0,-8.163385481E-1,1.380105116E0
8.216157292E0,6.550533369E-1,-3.186165351E-1,-1.014928410E0,1.249276210E0
8.226213292E0,1.456937276E0,3.873482162E-1,-9.696782702E-1,1.792478958E0
8.236270292E0,2.077686899E0,8.145960778E-1,-6.494537508E-1,2.324250372E0
8.246327292E0,2.297092702E0,7.968293130E-1,-3.231282467E-1,2.452750232E0
8.256384292E0,2.036502474E0,4.104213291E-1,-1.609650761E-1,2.083674098E0
8.266440292E0,1.501566441E0,7.407252789E-3,-8.821226478E-2,1.504173543E0
8.276497292E0,9.613312237E-1,-1.940971541E-1,2.461677790E-3,9.807331374E-1
8.286554292E0,6.374947330E-1,-1.166121912E-1,2.721118748E-2,6.486434972E-1
8.296611292E0,5.278949614E-1,1.530339128E-1,-2.352744162E-2,5.501327196E-1
8.306667292E0,4.745800491E-1,4.190114737E-1,-1.541659337E-1,6.515857374E-1
8.316724292E0,2.449734852E-1,5.430946523E-1,-3.531096987E-1,6.925678805E-1
8.326781292E0,-1.577850679E-1,4.062955338E-1,-5.260166895E-1,6.831293773E-1
8.336838292E0,-4.423911269E-1,7.443973303E-2,-6.000127651E-1,7.491772162E-1
8.346894292E0,-6.257663879E-1,-2.324250680E-1,-5.604690689E-1,8.716252415E-1
8.356951292E0,-6.891847041E-1,-4.483568949E-1,-4.515161455E-1,9.380118822E-1
8.367008292E0,-6.538587508E-1,-5.404253983E-1,-3.699797930E-1,9.254598448E-1
8.377065292E0,-6.171905690E-1,-4.850926119E-1,-2.946991573E-1,8.385026141E-1
8.387121292E0,-6.127737285E-1,-3.275791472E-1,-2.115527008E-1,7.263293229E-1
8.397178292E0,-4.604218934E-1,-1.528105491E-1,-1.291455518E-1,5.020139016E-1
8.407235292E0,-2.546396635E-1,-2.871099830E-2,-5.948474810E-2,2.630667500E-1
8.417292292E0,-2.280706465E-2,1.253473467E-1,-5.205893040E-2,1.376308532E-1
8.427348292E0,2.026400824E-1,2.687813008E-1,-4.618905678E-2,3.397643589E-1
8.437405292E0,4.195599425E-1,3.766051269E-1,-2.197968364E-2,5.642207665E-1
8.447462292E0,5.587260139E-1,5.409896547E-1,-2.262463152E-1,8.099579990E-1
8.457518292E0,7.853860196E-1,5.253044987E-1,-1.843467759E-1,9.626836188E-1
8.467575292E0,6.292368565E-1,4.603910494E-1,-9.787413083E-2,7.857978655E-1
8.477632292E0,5.253270105E-1,3.238837069E-1,6.068364657E-2,6.201222690E-1
8.487689292E0,3.693792839E-1,2.275145763E-1,1.883744842E-1,4.729575923E-1
8.497745292E0,3.804252590E-1,1.361991942E-2,3.389969321E-1,5.097330673E-1
8.507802292E0,3.393782437E-1,-1.910349673E-1,3.590563902E-1,5.297107157E-1
8.517859292E0,4.291449907E-1,-3.248935211E-1,3.634892374E-1,6.494964579E-1
8.527916292E0,5.092720181E-1,-3.460516709E-1,3.511090008E-1,7.087928314E-1
8.537972292E0,6.178317162E-1,-2.114212847E-1,3.172389311E-1,7.259859011E-1
8.548029292E0,6.177359681E-1,8.352747560E-3,3.068859241E-1,6.898162546E-1
8.558086292E0,5.150986223E-1,2.288249373E-1,2.278934393E-1,6.079661687E-1
8.568143292E0,4.178078243E-1,5.302991903E-1,1.485122609E-1,6.912571887E-1
8.578199292E0,3.945683581E-1,5.230234998E-1,2.658277991E-1,7.070376152E-1
8.588256292E0,4.426522051E-1,5.068138486E-1,4.665112935E-1,8.188003656E-1
8.598313292E0,5.813481604E-1,5.271884716E-1,6.246890384E-1,1.003060199E0
8.608370292E0,5.574375799E-1,3.891140753E-1,7.376823878E-1,1.003155882E0
8.618426292E0,4.099501897E-1,2.640409631E-1,7.601965070E-1,9.031475613E-1
8.628483292E0,3.035022135E-1,1.531841862E-1,6.818531728E-1,7.619073026E-1
8.638540292E0,3.204857437E-1,1.070660269E-1,5.165985793E-1,6.172911292E-1
8.648597292E0,2.654198827E-1,2.771574372E-1,2.465864762E-1,4.561456449E-1
8.658653292E0,1.122197628E-1,4.784133375E-1,-1.326166052E-1,5.089791357E-1
8.668710292E0,-1.029308760E-1,5.699602693E-1,-4.557811046E-1,7.370114579E-1
8.678767292E0,-2.458483748E-1,7.333349830E-1,-7.791268677E-1,1.097843475E0
8.688824292E0,-1.537398179E-1,6.948907095E-1,-9.013085318E-1,1.148418956E0
8.698880292E0,-2.018336052E-1,5.650392526E-1,-9.330577433E-1,1.109325432E0
8.708937292E0,-3.230691898E-1,2.029925233E-1,-7.616448623E-1,8.518700383E-1
8.718994292E0,-5.910462061E-1,-1.614188200E-1,-7.091684407E-1,9.371827626E-1
8.729051292E0,-8.985869452E-1,-4.067989790E-1,-4.080801040E-1,1.067461137E0
8.739107292E0,-1.216724740E0,-6.577965581E-1,9.277893106E-2,1.386262361E0
8.749164292E0,-1.515685567E0,-8.883627963E-1,5.699935985E-1,1.846993205E0
8.759221292E0,-1.621766484E0,-9.660950965E-1,9.105237436E-1,2.095833904E0
8.769277292E0,-1.589991983E0,-9.522734481E-1,1.091730126E0,2.150993700E0
8.779334292E0,-1.739413632E0,-1.113232092E0,1.377497588E0,2.482407114E0
8.789391292E0,-1.652057254E0,-1.035572298E0,1.408079696E0,2.405076211E0
8.799448292E0,-1.219298391E0,-8.150778884E-1,1.217465143E0,1.906111725E0
8.809504292E0,-8.717023247E-1,-4.836881107E-1,1.029588257E0,1.433133319E0
8.819561292E0,-6.815407853E-1,-1.733208275E-1,9.122837555E-1,1.151867875E0
8.829618292E0,-4.757130933E-1,1.445051640E-1,8.180605531E-1,9.572918876E-1
8.839675292E0,-1.612550980E-1,3.410330057E-1,7.343681860E-1,8.255927266E-1
8.849731292E0,1.695983438E-1,3.899589980E-1,6.577883720E-1,7.832733627E-1
8.859788292E0,3.720982392E-1,3.814548075E-1,5.126546323E-1,7.394454962E-1
8.869845292E0,3.734708731E-1,3.806391209E-1,2.397568917E-1,5.846793998E-1
8.879902292E0,2.543965656E-1,4.312678224E-1,6.024971008E-2,5.043209045E-1
8.889958292E0,1.150496690E-1,4.985511482E-1,1.066824496E-1,5.226574583E-1
8.900015292E0,-6.023933128E-2,5.484360838E-1,3.041195698E-1,6.299997046E-1
8.910072292E0,-2.234091000E-1,5.507661992E-1,5.572560239E-1,8.147326607E-1
8.920129292E0,-3.927348174E-1,4.880939877E-1,7.362837338E-1,9.667420102E-1
8.930185292E0,-6.149551785E-1,3.744247001E-1,9.241150117E-1,1.171474405E0
8.940242292E0,-8.980029546E-1,2.452439189E-1,1.125350447E0,1.460468252E0
8.950299292E0,-1.074658742E0,7.912744582E-2,1.273934044E0,1.668550422E0
8.960356292E0,-1.178421238E0,-1.107959658E-1,1.341201582E0,1.788791224E0
8.970412292E0,-1.209888760E0,-1.826436281E-2,1.221400319E0,1.719297280E0
8.980469292E0,-1.030739720E0,-3.594727850E-1,1.435024835E0,1.803036697E0
8.990526292E0,-1.040496969E0,-4.410969919E-1,1.674016911E0,2.019785413E0
9.000582292E0,-9.928892313E-1,-1.698867577E-1,1.677728723E0,1.956901685E0
9.010639292E0,-7.554465213E-1,1.370669210E-1,1.602166325E0,1.776632691E0
9.020696292E0,-3.984416999E-1,3.860208982E-1,1.565617719E0,1.661001735E0
9.030753292E0,-6.903924465E-2,5.774347651E-1,1.544454306E0,1.650314040E0
9.040810292E0,6.100443944E-2,6.231921512E-1,1.627553766E0,1.743852419E0
9.050866292E0,4.768185094E-2,6.180161959E-1,1.639129060E0,1.752415947E0
9.060923292E0,-6.571247131E-2,6.388761377E-1,1.577567089E0,1.703290570E0
9.070980292E0,-3.237674935E-1,6.502384472E-1,1.511982379E0,1.677416508E0
9.081037292E0,-4.766110794E-1,5.994875389E-1,1.455595340E0,1.644779992E0
9.091093292E0,-5.712950425E-1,4.670726627E-1,1.454615200E0,1.631085613E0
9.101150292E0,-6.616266306E-1,2.573605192E-1,1.598058363E0,1.748649413E0
9.111207292E0,-6.335690586E-1,5.268984497E-2,1.681479127E0,1.797653478E0
9.121263292E0,-6.302475478E-1,-1.705574334E-1,1.825879772E0,1.939107721E0
9.131320292E0,-5.370068237E-1,-3.348589307E-1,2.081144357E0,2.175239910E0
9.141377292E0,-4.651775801E-1,-3.035511839E-1,2.168180308E0,2.238200025E0
9.151434292E0,-5.473280364E-1,-1.123472321E-1,2.263906245E0,2.331836480E0
9.161490292E0,-5.354900560E-1,1.025467139E-1,2.299967194E0,2.363707791E0
9.171547292E0,-4.916200049E-1,1.163098902E-1,2.181044329E0,2.238788196E0
9.181604292E0,-3.882488336E-1,-1.182365477E-2,1.779047083E0,1.820957298E0
9.191661417E0,-3.158962642E-1,-2.822486079E-1,1.326460751E0,1.392462872E0
9.201717417E0,-3.497500348E-1,-6.323325187E-1,1.041409134E0,1.267557686E0
9.211774417E0,-3.704024005E-1,-9.229332894E-1,1.004579570E0,1.413571331E0
9.221831417E0,-2.416766788E-1,-1.107138124E0,1.152184635E0,1.616072980E0
9.231888417E0,-2.587612197E-1,-1.037384934E0,1.389988557E0,1.753622838E0
9.241944417E0,-2.866022985E-1,-7.654092997E-1,1.645954953E0,1.837705086E0
9.252001417E0,-1.567746690E-1,-6.146973163E-1,1.817352193E0,1.924889628E0
9.262058417E0,4.387326702E-2,-6.345141149E-1,1.979566527E0,2.079234633E0
9.272115417E0,2.331704418E-1,-7.280374056E-1,2.220386442E0,2.348302125E0
9.282171417E0,3.104677092E-1,-8.458558774E-1,2.458315641E0,2.618239514E0
9.292228417E0,1.563956232E-1,-1.190735766E0,2.509821424E0,2.782357784E0
9.302285417E0,-3.076378030E-1,-1.690438231E0,2.305739565E0,2.875527321E0
9.312342417E0,-8.381591874E-1,-1.907436005E0,1.730503353E0,2.708406320E0
9.322398417E0,-1.526463009E0,-2.939201766E0,1.862823358E0,3.799882524E0
9.332455417E0,-2.168183378E0,-3.207877817E0,1.738195950E0,4.244151789E0
9.342512417E0,-2.522801074E0,-3.170270864E0,1.575060826E0,4.346948265E0
9.352568417E0,-2.521674315E0,-2.935336171E0,1.593352232E0,4.184950552E0
9.362625417E0,-2.270542250E0,-2.669991864E0,1.611436501E0,3.857582956E0
9.372682417E0,-1.947584304E0,-2.578649585E0,1.432533775E0,3.534780236E0
9.382739417E0,-1.548613138E0,-2.542995018E0,1.058010403E0,3.159812071E0
9.392795417E0,-1.077180061E0,-2.390179206E0,6.545889218E-1,2.702176933E0
9.402852417E0,-6.523194712E-1,-2.128456664E0,5.066518807E-1,2.283099777E0
9.412909417E0,-3.495830968E-2,-1.626681946E0,4.503221440E-1,1.688225776E0
9.422966417E0,8.555157700E-1,-8.298959023E-1,5.250027823E-1,1.302406374E0
9.433022417E0,1.717515225E0,-2.662822008E-3,9.471787691E-1,1.961380447E0
9.443079417E0,2.698112878E0,4.498771709E-1,1.565023642E0,3.151428497E0
9.453136417E0,3.473244343E0,6.344848788E-1,1.915833192E0,4.017015577E0
9.463193417E0,3.891927204E0,5.252191293E-1,1.373845417E0,4.160577330E0
9.473249417E0,3.925518873E0,3.018870664E-1,1.716485238E-1,3.940849837E0
9.483306417E0,3.748763683E0,1.315834022E-1,-1.205007066E0,3.939871238E0
9.493363417E0,3.099888514E0,-1.211133778E-1,-2.257799998E0,3.836878690E0
9.503420417E0,2.038765054E0,-2.918871582E-1,-3.020009117E0,3.655436516E0
9.513476417E0,1.272043493E0,-2.348066390E-1,-3.086279705E0,3.346393763E0
9.523533417E0,9.451822373E-1,-1.487379634E-1,-2.511397249E0,2.687491132E0
9.533590417E0,5.789556259E-1,-1.529239851E-1,-1.791331937E0,1.888768242E0
9.543647417E0,2.652738485E-1,-2.328027982E-1,-1.471074089E0,1.512820654E0
9.553703417E0,-8.050855815E-2,-4.442527342E-1,-1.479260191E0,1.546626274E0
9.563760417E0,-4.954921773E-1,-6.777074969E-1,-1.564779082E0,1.775762801E0
9.573817417E0,-8.790680623E-1,-9.276853216E-1,-1.309002866E0,1.829439591E0
9.583874417E0,-1.231441158E0,-1.300312588E0,-8.153405745E-1,1.967750087E0
9.593930417E0,-1.255238156E0,-1.635517089E0,-5.008058345E-1,2.121637448E0
9.603987417E0,-1.305929423E0,-1.895039908E0,-4.937437136E-1,2.353807717E0
9.614044417E0,-1.411201816E0,-2.090014729E0,-7.196536678E-1,2.622509016E0
9.624101417E0,-1.470553102E0,-2.101071230E0,-9.593978418E-1,2.738151010E0
9.634157417E0,-1.435898409E0,-1.894886127E0,-1.303720345E0,2.711472738E0
9.644214417E0,-1.371260948E0,-1.552909380E0,-1.709447822E0,2.685906921E0
9.654271417E0,-1.352822046E0,-1.223760840E0,-1.941868504E0,2.664314428E0
9.664328417E0,-1.156417288E0,-8.030063117E-1,-1.947435931E0,2.403045315E0
9.674384417E0,-1.003965758E0,-2.628072006E-1,-1.917279793E0,2.180132260E0
9.684441417E0,-6.867227340E-1,3.359669781E-1,-1.782437738E0,1.939470601E0
9.694498417E0,-3.337731028E-1,8.064742953E-1,-1.684854433E0,1.897508823E0
9.704555417E0,-1.214028150E-2,1.191254999E0,-1.566593034E0,1.968108126E0
9.714611417E0,8.031121463E-2,1.391271874E0,-1.524905603E0,2.065774532E0
9.724668417E0,-1.218299541E-1,1.443231402E0,-1.567705759E0,2.134352540E0
9.734725417E0,-2.104158559E-1,1.342901952E0,-1.626348362E0,2.119591819E0
9.744781417E0,-1.870492128E-1,1.241563858E0,-1.704507802E0,2.117029775E0
9.754838417E0,-3.033251891E-1,1.183719108E0,-1.770275529E0,2.151063120E0
9.764895417E0,-4.832451841E-1,1.131984698E0,-1.855309247E0,2.226451811E0
9.774952417E0,-3.495769572E-1,1.237355617E0,-1.854533322E0,2.256667191E0
9.785008417E0,-4.458577949E-1,1.339366726E0,-1.668212965E0,2.185320776E0
9.795065417E0,-3.650603843E-1,1.395433338E0,-1.242139809E0,1.903526881E0
9.805122417E0,-2.015476763E-2,1.623380023E0,-9.784871006E-1,1.895575353E0
9.815179417E0,-3.575952441E-2,1.781203390E0,-8.829359955E-1,1.988351134E0
9.825235417E0,3.598952463E-1,2.112636437E0,-5.429022789E-1,2.210769140E0
9.835292417E0,5.729367945E-1,2.605563734E0,-3.658939049E-1,2.692786157E0
9.845349417E0,8.145203564E-1,3.131932425E0,-4.127245474E-1,3.262328261E0
9.855406417E0,1.057374518E0,3.536806501E0,-5.102204365E-1,3.726575639E0
9.865462417E0,1.197429074E0,3.682029119E0,-6.995170265E-1,3.934526514E0
9.875519417E0,1.298037144E0,3.656599578E0,-8.205742711E-1,3.965975672E0
9.885576417E0,1.204803875E0,3.546508201E0,-9.267526907E-1,3.858515692E0
9.895633417E0,1.054278125E0,3.396224234E0,-9.278812033E-1,3.675160533E0
9.905689417E0,8.189925992E-1,3.163610886E0,-8.373984647E-1,3.373487647E0
9.915746417E0,5.248361367E-1,2.865345000E0,-6.674503112E-1,2.988502109E0
9.925803417E0,3.286433405E-1,2.493701820E0,-4.546107844E-1,2.556017641E0
9.935860417E0,1.272535390E-1,2.072304683E0,-4.162895948E-2,2.076625419E0
9.945916417E0,4.596086919E-2,1.529974846E0,6.581351119E-1,1.666156432E0
9.955973417E0,2.039099514E-2,7.476670933E-1,1.559677825E0,1.729744719E0
9.966030417E0,-1.226257601E-1,-2.283805490E-1,2.479635466E0,2.493147969E0
9.976087417E0,-2.753474316E-1,-1.260121751E0,3.411762040E0,3.647443386E0
9.986143417E0,-3.278805712E-1,-2.218358189E0,4.144461139E0,4.712236927E0
9.996200417E0,-7.842566299E-1,-3.121791599E0,4.506941731E0,5.538335943E0
1.000625742E1,-1.187140606E0,-3.818525351E0,4.449789876E0,5.982563716E0
1.001631442E1,-1.527487148E0,-4.014023498E0,4.093252686E0,5.932985689E0
1.002637042E1,-1.442265442E0,-3.689897132E0,3.518239253E0,5.298441081E0
1.003642742E1,-1.002266265E0,-2.871709694E0,2.950668448E0,4.237652478E0
1.004648442E1,-9.399788001E-1,-1.866131274E0,2.407597769E0,3.187872817E0
1.005654142E1,-7.552494702E-1,-9.307276279E-1,1.728700949E0,2.103583288E0
1.006659742E1,-1.690242934E-1,-1.854520458E-1,1.292047256E0,1.316186835E0
1.007665442E1,3.132511300E-1,1.886072034E-1,1.138236248E0,1.195525284E0
1.008671142E1,5.632280776E-1,3.190544915E-1,1.204056308E0,1.367030808E0
1.009676842E1,9.667140242E-1,2.976542670E-1,1.168242112E0,1.545290814E0
1.010682442E1,1.304136959E0,-8.771992922E-3,9.471182504E-1,1.611795004E0
1.011688142E1,1.405989608E0,-5.567467314E-1,6.311914346E-1,1.638650765E0
1.012693842E1,1.114393934E0,-9.438745075E-1,3.373980841E-1,1.498869705E0
1.013699442E1,7.218984139E-1,-9.027142024E-1,2.919573247E-1,1.192170009E0
1.014705142E1,6.352803925E-1,-7.004566741E-1,2.758248568E-1,9.850381114E-1
1.015710842E1,1.024425458E0,-6.107545388E-1,4.729688488E-1,1.283030848E0
1.016716542E1,1.490040410E0,-6.586613613E-1,6.678009979E-1,1.760685487E0
1.017722142E1,1.570299877E0,-8.032092100E-1,9.101278871E-1,1.984771903E0
1.018727842E1,1.155891331E0,-7.768639952E-1,8.988433456E-1,1.657565020E0
1.019733554E1,3.839427978E-1,-7.324163854E-1,1.570839867E-1,8.417370210E-1
1.020739254E1,-5.846806347E-2,-6.551308125E-1,-1.154665462E0,1.328859370E0
1.021744854E1,-2.898298153E-1,-2.476751912E-1,-2.734076763E0,2.760528947E0
1.022750554E1,-3.368545854E-1,5.431759286E-1,-3.748585051E0,3.802683392E0
1.023756254E1,-2.965602529E-1,1.438131461E0,-4.167483088E0,4.418606723E0
1.024761954E1,-5.183556676E-1,2.229960235E0,-4.542108933E0,5.086469188E0
1.025767554E1,-5.098719424E-1,2.833931419E0,-4.800172287E0,5.597570068E0
1.026773254E1,-5.923258692E-2,3.047533715E0,-4.955968425E0,5.818298142E0
1.027778954E1,5.975117648E-1,2.844053534E0,-4.574805393E0,5.419825200E0
1.028784654E1,8.240682748E-1,2.237624180E0,-3.642506618E0,4.353608269E0
1.029790254E1,5.169985288E-1,1.169667079E0,-2.516634015E0,2.822916103E0
1.030795954E1,7.804951161E-2,-1.794627428E-2,-1.429729012E0,1.431970266E0
1.031801654E1,-2.796460122E-1,-1.149742692E0,-7.141983618E-1,1.382096035E0
1.032807354E1,-7.242019245E-1,-2.053961383E0,-8.371394330E-1,2.333244140E0
1.033812954E1,-9.322239304E-1,-2.726419249E0,-1.095335081E0,3.082557756E0
1.034818654E1,-8.273786759E-1,-2.956273296E0,-9.150905652E-1,3.203357304E0
1.035824354E1,-1.044952401E0,-2.434919761E0,-6.644799256E-1,2.731719850E0
1.036830054E1,-1.458407850E0,-1.366008979E0,-8.806542657E-1,2.183686315E0
1.037835654E1,-9.976402402E-1,-3.129874206E-1,-8.998420501E-1,1.379479209E0
1.038841354E1,-8.909671462E-1,2.545906931E-1,-1.221344186E0,1.533075503E0
1.039847054E1,-9.283007410E-1,4.794149655E-1,-1.748827357E0,2.037149504E0
1.040852754E1,-7.324760270E-1,5.242888373E-1,-1.980755558E0,2.175957834E0
1.041858354E1,-5.012885222E-1,4.670288086E-1,-1.986408500E0,2.101243636E0
1.042864054E1,-3.909740746E-1,3.876008159E-1,-2.026763059E0,2.100205613E0
1.043869754E1,-3.573441061E-1,2.721855497E-1,-1.780138612E0,1.835939341E0
1.044875454E1,-3.284375185E-1,2.029299581E-1,-1.220278823E0,1.279895378E0
1.045881054E1,-4.386832613E-1,1.493337947E-1,-8.741411984E-1,9.893767840E-1
1.046886754E1,-5.659800696E-1,1.817782402E-2,-5.867405357E-1,8.154313759E-1
1.047892454E1,-6.109901816E-1,-1.164630872E-1,-2.670486977E-1,6.768956046E-1
1.048898154E1,-7.301160908E-1,-1.471790957E-1,-2.671417415E-2,7.452817181E-1
1.049903754E1,-7.147884920E-1,-9.237723649E-2,1.403892724E-1,7.342787549E-1
1.050909454E1,-5.842672366E-1,-4.059254050E-2,2.837676780E-1,6.507995491E-1
1.051915154E1,-4.517026716E-1,-3.964704573E-2,3.028524051E-1,5.452767839E-1
1.052920854E1,-3.427962336E-1,-6.845803142E-2,2.658986235E-1,4.392013636E-1
1.053926454E1,-2.427392641E-1,-1.278984869E-1,2.085128796E-1,3.446128178E-1
1.054932154E1,-1.610030830E-1,-1.546723026E-1,1.285340792E-1,2.576170092E-1
1.055937854E1,-1.138906047E-1,-1.027455193E-1,1.107457163E-1,1.891885970E-1
1.056943454E1,1.507324487E-2,4.338634014E-4,1.699019605E-1,1.705698306E-1
1.057949154E1,9.464274019E-2,1.601967520E-1,2.592421532E-1,3.191030266E-1
1.058954854E1,1.058340186E-1,2.621254152E-1,3.644166058E-1,4.612049820E-1
1.059960554E1,2.033223063E-2,2.881958109E-1,4.511337376E-1,5.357162254E-1
1.060966154E1,-8.669754356E-2,3.060292339E-1,5.273241270E-1,6.158255361E-1
1.061971854E1,-2.095083681E-1,2.425647247E-1,5.671752405E-1,6.514746007E-1
1.062977554E1,-2.962494734E-1,2.125819570E-1,5.669050992E-1,6.740446798E-1
1.063983254E1,-3.086128262E-1,1.537034190E-1,5.444821966E-1,6.444590599E-1
1.064988854E1,-2.475807586E-1,1.292725825E-1,5.389343584E-1,6.070073107E-1
1.065994554E1,-1.816607112E-1,1.026309139E-1,6.160556245E-1,6.504292820E-1
1.067000254E1,-8.278955698E-2,9.619839191E-2,7.598737407E-1,7.704001188E-1
1.068005954E1,-6.744938672E-2,3.701287508E-2,9.556899762E-1,9.587818852E-1
1.069011554E1,-1.360106215E-1,-7.851641178E-3,1.171399609E0,1.179295375E0
1.070017254E1,-2.508861896E-1,-2.795319915E-2,1.344798789E0,1.368286901E0
1.071022954E1,-3.588866016E-1,-4.301621139E-2,1.456998671E0,1.501164586E0
1.072028654E1,-4.177347341E-1,1.145411074E-2,1.451752549E0,1.510701483E0
1.073034254E1,-5.108861420E-1,3.560954332E-4,1.385475529E0,1.476667606E0
1.074039954E1,-5.795994043E-1,6.956607878E-2,1.229958304E0,1.361459635E0
1.075045654E1,-5.439296347E-1,1.610451829E-1,1.048360158E0,1.191995814E0
1.076051354E1,-5.024290216E-1,3.066092777E-1,8.190592575E-1,1.008614018E0
1.077056954E1,-4.562541443E-1,3.110859060E-1,6.900416136E-1,8.837984576E-1
1.078062654E1,-4.453052330E-1,3.909050775E-1,5.842432996E-1,8.321320587E-1
1.079068354E1,-4.834448665E-1,4.162387240E-1,4.243371908E-1,7.661825277E-1
1.080074054E1,-5.633075997E-1,3.370300019E-1,3.747001771E-1,7.558471385E-1
1.081079654E1,-7.173405093E-1,2.488089663E-1,3.311583010E-1,8.283411908E-1
1.082085354E1,-9.305469489E-1,6.120748401E-2,4.435240980E-1,1.032655608E0
1.083091054E1,-1.072918172E0,-1.828944737E-1,5.802098536E-1,1.233388530E0
1.084096754E1,-1.322022422E0,-4.273560351E-1,5.306138070E-1,1.487255014E0
1.085102354E1,-1.452375278E0,-5.396635062E-1,3.265002628E-1,1.583424475E0
1.086108054E1,-1.440026251E0,-5.862359941E-1,3.199619794E-1,1.587363825E0
1.087113754E1,-1.317984335E0,-6.872858208E-1,4.489843011E-1,1.552749629E0
1.088119454E1,-1.068683618E0,-8.988398373E-1,5.688229859E-1,1.507831993E0
1.089125054E1,-1.039016015E0,-1.221357050E0,5.710939714E-1,1.702179675E0
1.090130754E1,-1.037964686E0,-1.752054436E0,5.530250517E-1,2.110190073E0
1.091136454E1,-1.116086118E0,-2.230132728E0,4.465308094E-1,2.533481788E0
1.092142054E1,-1.154792347E0,-2.668586193E0,1.559393211E-1,2.911909117E0
1.093147754E1,-1.081652450E0,-2.957250951E0,-1.662772715E-1,3.153244891E0
1.094153454E1,-7.554488602E-1,-3.025336515E0,-3.251823735E-1,3.135140760E0
1.095159154E1,-1.994461870E-1,-2.785728142E0,-1.929440101E-1,2.799515575E0
1.096164754E1,5.247206542E-1,-2.149066345E0,2.325122646E-1,2.224383032E0
1.097170454E1,1.401158347E0,-1.298941416E0,7.767780411E-1,2.062493064E0
1.098176154E1,2.039900583E0,-3.059853798E-1,1.352021270E0,2.466329855E0
1.099181854E1,2.485616875E0,6.660861558E-1,1.915166609E0,3.207775734E0
1.100187454E1,2.839851725E0,1.468449274E0,2.404074529E0,4.000084428E0
1.101193154E1,2.954206306E0,1.930151854E0,2.644245404E0,4.409632052E0
1.102198854E1,2.906493026E0,1.965550312E0,2.376668630E0,4.237881961E0
1.103204554E1,2.656331891E0,1.710598846E0,1.631807030E0,3.555986742E0
1.104210154E1,2.255829486E0,1.160579921E0,5.513175917E-1,2.596086191E0
1.105215854E1,1.574497885E0,4.970226860E-1,-4.584053349E-1,1.713537450E0
1.106221554E1,7.234406170E-1,-3.386882722E-2,-1.074882544E0,1.296104126E0
1.107227254E1,9.038509011E-2,-3.562638330E-1,-1.527057670E0,1.570668174E0
1.108232854E1,-3.181011030E-1,-5.008537817E-1,-1.575876074E0,1.683872983E0
1.109238554E1,-7.217773765E-1,-5.809056723E-1,-1.551490261E0,1.807079415E0
1.110244254E1,-1.330641510E0,-7.974099416E-1,-1.666523704E0,2.276789560E0
1.111249954E1,-1.885641386E0,-1.043052641E0,-1.744730213E0,2.772667626E0
1.112255554E1,-2.241088071E0,-1.253999131E0,-1.742557826E0,3.103465376E0
1.113261254E1,-2.541396389E0,-1.437432718E0,-1.426131658E0,3.249424554E0
1.114266954E1,-2.607605581E0,-1.518209664E0,-9.919199091E-1,3.176235595E0
1.115272654E1,-2.492846373E0,-1.502639113E0,-6.321759595E-1,2.978565726E0
1.116278254E1,-2.406464579E0,-1.452353058E0,-5.344033509E-1,2.861116586E0
1.117283954E1,-2.027562666E0,-1.298408149E0,-4.887311880E-1,2.456772733E0
1.118289654E1,-1.540929312E0,-1.006340897E0,-5.256355973E-1,1.914021402E0
1.119295358E1,-1.108230969E0,-6.642378509E-1,-6.805856426E-1,1.460337160E0
1.120300958E1,-7.199024668E-1,-4.510062683E-1,-8.345675352E-1,1.190869089E0
1.121306658E1,-4.412829334E-1,-3.488782150E-1,-7.966172053E-1,9.752156725E-1
1.122312358E1,-2.257876012E-1,-3.918798083E-1,-6.552150124E-1,7.961510771E-1
1.123318058E1,-7.079282463E-2,-4.795868737E-1,-6.334826660E-1,7.976938520E-1
1.124323658E1,-2.076238105E-1,-5.444593924E-1,-8.595383620E-1,1.038436263E0
1.125329358E1,-6.676195881E-1,-4.756212920E-1,-1.211806793E0,1.463013066E0
1.126335058E1,-1.395604369E0,-3.775482827E-1,-1.592465356E0,2.150860332E0
1.127340758E1,-2.118850566E0,-2.487083942E-1,-1.861447801E0,2.831319745E0
1.128346358E1,-2.421515312E0,-6.395684481E-2,-1.942208812E0,3.104835254E0
1.129352058E1,-2.398117678E0,1.546313721E-1,-1.857830713E0,3.037501312E0
1.130357758E1,-2.251483251E0,3.272288990E-1,-1.804489050E0,2.903865753E0
1.131363458E1,-2.042553465E0,4.104002792E-1,-1.742918454E0,2.716287500E0
1.132369058E1,-1.720852523E0,4.368279397E-1,-1.597808687E0,2.388544464E0
1.133374758E1,-1.455926877E0,3.412049139E-1,-1.485215580E0,2.107607454E0
1.134380458E1,-1.268671257E0,1.515387797E-1,-1.280206498E0,1.808706565E0
1.135386058E1,-1.104800407E0,-5.387624502E-2,-9.893085426E-1,1.483987191E0
1.136391758E1,-9.706524163E-1,-2.926069504E-1,-6.408823174E-1,1.199381126E0
1.137397458E1,-8.202898040E-1,-4.517237216E-1,-4.785495776E-1,1.051636525E0
1.138403158E1,-7.120300680E-1,-5.948682386E-1,-3.864623630E-1,1.005091139E0
1.139408758E1,-5.386077914E-1,-6.486275393E-1,-4.355821905E-1,9.489720134E-1
1.140414458E1,-3.255884627E-1,-6.153644836E-1,-5.280345637E-1,8.737858977E-1
1.141420158E1,-5.826253384E-2,-4.687011123E-1,-5.976066358E-1,7.617144785E-1
1.142425858E1,1.535154310E-1,-3.219658202E-1,-6.369047490E-1,7.299839972E-1
1.143431458E1,7.274023980E-2,-2.628346825E-1,-7.778013039E-1,8.242257464E-1
1.144437158E1,1.716596335E-1,-2.806032014E-1,-7.518545768E-1,8.206646642E-1
1.145442858E1,3.375828561E-1,-2.949680561E-1,-6.881471157E-1,8.212884948E-1
1.146448558E1,3.753166929E-1,-2.135332990E-1,-6.806296429E-1,8.060495025E-1
1.147454158E1,4.090194592E-1,-9.565167725E-2,-6.840894404E-1,8.027605644E-1
1.148459858E1,4.737513524E-1,8.108509362E-2,-6.656284650E-1,8.210215525E-1
1.149465558E1,5.935833129E-1,2.245582241E-1,-6.862890168E-1,9.347513894E-1
1.150471258E1,5.424663690E-1,3.309459740E-1,-8.389962164E-1,1.052477862E0
1.151476858E1,3.116068929E-1,3.777003103E-1,-1.012753977E0,1.124911996E0
1.152482558E1,1.898044208E-1,3.625922745E-1,-1.077107555E0,1.152241104E0
1.153488258E1,9.517746806E-2,4.180613011E-1,-1.099991219E0,1.180599290E0
1.154493958E1,-1.597430080E-2,5.353763276E-1,-1.106568605E0,1.229380766E0
1.155499558E1,-1.014632249E-1,6.275033033E-1,-1.050085818E0,1.227491510E0
1.156505258E1,-9.855774343E-3,6.039817089E-1,-7.892406504E-1,9.938771781E-1
1.157510958E1,1.489741910E-1,5.873604137E-1,-6.552150124E-1,8.924641604E-1
1.158516658E1,2.820851782E-1,5.405861968E-1,-7.461398005E-1,9.636026597E-1
1.159522258E1,4.980129120E-1,4.768322504E-1,-6.584239644E-1,9.533666516E-1
1.160527958E1,6.678476295E-1,5.268715525E-1,-6.771210212E-1,1.087247426E0
1.161533658E1,8.462429631E-1,7.012454635E-1,-7.704308885E-1,1.342175885E0
1.162539358E1,1.127082100E0,9.427553505E-1,-9.186377786E-1,1.732915774E0
1.163544958E1,1.331244066E0,1.174658847E0,-1.020160207E0,2.047623261E0
1.164550658E1,1.437355243E0,1.331846037E0,-8.867877757E-1,2.150859484E0
1.165556358E1,1.457593918E0,1.381284830E0,-5.052520573E-1,2.070702164E0
1.166562058E1,1.347798703E0,1.285585206E0,-1.891968951E-2,1.862699283E0
1.167567658E1,1.145135963E0,1.077560568E0,3.608163290E-1,1.613276658E0
1.168573358E1,9.551087630E-1,8.312507021E-1,3.895753475E-1,1.324756366E0
1.169579058E1,8.279610586E-1,4.870900208E-1,1.649042722E-1,9.746638507E-1
1.170584758E1,6.673795599E-1,8.248316288E-2,-1.083360422E-1,6.811282164E-1
1.171590358E1,5.154446313E-1,-2.421694529E-1,-2.264761108E-1,6.128789771E-1
1.172596058E1,3.859978017E-1,-4.578697300E-1,-2.824227818E-1,6.621190378E-1
1.173601758E1,2.807128367E-1,-5.721827960E-1,-2.927267452E-1,7.013428520E-1
1.174607458E1,1.930966955E-1,-3.825973535E-1,-3.983637857E-1,5.851160351E-1
1.175613058E1,2.388727927E-1,-9.195506752E-2,-7.756167110E-1,8.167602022E-1
1.176618758E1,3.663935494E-1,1.856683928E-1,-1.381402359E0,1.441176416E0
1.177624458E1,4.395281839E-1,3.944005430E-1,-1.997017688E0,2.082502451E0
1.178630158E1,6.377026016E-1,5.584371614E-1,-2.114067251E0,2.277673597E0
1.179635758E1,1.222235009E0,6.627421331E-1,-1.504425437E0,2.048507127E0
1.180641458E1,1.762710986E0,5.226679891E-1,-5.275006763E-1,1.912743791E0
1.181647158E1,2.050172094E0,5.829030812E-2,1.659445649E-1,2.057702839E0
1.182652858E1,2.143145747E0,-7.386249590E-1,5.178785348E-1,2.325260996E0
1.183658458E1,1.752226051E0,-1.535811537E0,5.151683869E-1,2.386296645E0
1.184664158E1,7.260777113E-1,-1.784546828E0,3.969259554E-1,1.967065438E0
1.185669858E1,-2.962181908E-1,-1.502539126E0,6.954076034E-1,1.681951478E0
1.186675558E1,-1.204292243E0,-8.368897569E-1,1.107877212E0,1.837959790E0
1.187681158E1,-1.723494880E0,2.140841067E-2,9.838291168E-1,1.984644213E0
1.188686858E1,-1.754139260E0,6.733624309E-1,1.080688244E-1,1.882046859E0
1.189692558E1,-1.574453154E0,8.349075508E-1,-8.323195732E-1,1.966908545E0
1.190698158E1,-1.477377972E0,5.231726038E-1,-1.377324511E0,2.086475031E0
1.191703858E1,-1.331118643E0,-8.739131570E-2,-1.368552518E0,1.911138425E0
1.192709558E1,-1.193467878E0,-6.889797592E-1,-9.380711460E-1,1.667044138E0
1.193715258E1,-1.213611243E0,-9.666412264E-1,-3.821143734E-1,1.597892019E0
1.194720858E1,-1.492820761E0,-9.009951210E-1,8.368301153E-2,1.745654284E0
1.195726558E1,-1.692224848E0,-7.143408877E-1,3.371808600E-1,1.867511385E0
1.196732258E1,-1.577799808E0,-5.280386567E-1,2.628089547E-1,1.684442223E0
1.197737958E1,-1.069554853E0,-2.465554494E-1,6.915385008E-2,1.099781537E0
1.198743558E1,-3.077550396E-1,1.504792643E-1,-1.067818979E-2,3.427407141E-1
1.199749258E1,2.815495732E-1,4.159779382E-1,-4.502356052E-4,5.023027075E-1
1.200754958E1,6.635402781E-1,4.889780867E-1,3.148725629E-2,8.248495119E-1
1.201760658E1,6.050052640E-1,5.101555324E-1,1.691005630E-3,7.913866919E-1
1.202766258E1,1.430334198E-1,3.873967481E-1,-2.061061839E-1,4.615350026E-1
1.203771958E1,-3.307728964E-1,1.656381708E-1,-4.975337327E-1,6.199891352E-1
1.204777658E1,-7.546375591E-1,-9.895886242E-2,-6.497028422E-1,1.000692003E0
1.205783358E1,-1.019673718E0,-3.658211070E-1,-5.549861348E-1,1.217197266E0
1.206788958E1,-1.058144889E0,-5.575647569E-1,-4.489024401E-1,1.277522002E0
1.207794658E1,-8.029259124E-1,-6.163403839E-1,-3.763560355E-1,1.079911735E0
1.208800358E1,-3.571730751E-1,-5.242204249E-1,-2.223941513E-1,6.721895700E-1
1.209806058E1,1.247740272E-1,-3.473339653E-1,1.900719309E-1,4.151346531E-1
1.210811658E1,5.046325448E-1,-2.216971815E-1,6.661615849E-1,8.646241395E-1
1.211817358E1,6.831591484E-1,-1.135260308E-1,1.008746442E0,1.223586517E0
1.212823058E1,6.774619138E-1,7.347611189E-3,1.139059829E0,1.325317292E0
1.213828758E1,5.325214246E-1,1.424522066E-1,9.355673683E-1,1.085890418E0
1.214834358E1,3.157619244E-1,1.645470804E-1,6.075783312E-1,7.042249379E-1
1.215840058E1,1.293161443E-1,1.157660991E-1,3.597078431E-1,3.993922724E-1
1.216845758E1,-6.755843729E-2,7.230257571E-2,2.356147424E-1,2.555506051E-1
1.217851458E1,-2.908934239E-1,1.880815387E-2,1.118034410E-1,3.122062461E-1
1.218857058E1,-4.981909597E-1,-7.711600363E-2,-1.082799089E-1,5.156216142E-1
1.219862758E1,-6.637390834E-1,-2.743244612E-1,-3.311827862E-1,7.908764245E-1
1.220868458E1,-7.494487399E-1,-4.393293786E-1,-3.998033702E-1,9.563087637E-1
1.221874158E1,-7.413702267E-1,-4.165240681E-1,-3.455423784E-1,9.178897797E-1
1.222879758E1,-7.099510905E-1,-2.837899339E-1,-2.785379831E-1,8.137264193E-1
1.223885458E1,-5.321156278E-1,1.319716573E-3,-1.830131904E-1,5.627100594E-1
1.224891158E1,-2.180298078E-1,2.785724634E-1,-2.003372113E-2,3.543176039E-1
1.225896858E1,-2.197500587E-2,5.200227088E-1,1.364845383E-1,5.380841456E-1
1.226902458E1,9.485645592E-2,5.640844023E-1,1.546600235E-1,5.925442456E-1
1.227908158E1,6.085635871E-2,5.360008103E-1,-1.623526204E-1,5.633460201E-1
1.228913858E1,1.166253474E-1,-2.513659537E-2,-1.916506791E-1,2.257505324E-1
1.229919558E1,-7.432103455E-2,-2.935120994E-1,-2.544228780E-1,3.954794173E-1
1.230925158E1,-3.006951115E-1,-2.026750195E-1,-5.284608257E-1,6.409099452E-1
1.231930858E1,-3.506870511E-1,-1.334568501E-2,-6.017580128E-1,6.966148298E-1
1.232936558E1,-2.321958572E-1,1.499360579E-1,-4.695700085E-1,5.448777206E-1
1.233942258E1,-7.666927636E-2,1.607767957E-1,-2.960304952E-1,3.454872068E-1
1.234947858E1,-7.368661165E-3,1.102404803E-1,-1.867203069E-1,2.169602122E-1
1.235953558E1,5.071757913E-2,5.034394205E-2,-1.652914310E-1,1.800778789E-1
1.236959258E1,1.260998833E-1,4.621522307E-2,-1.817887652E-1,2.260181023E-1
1.237964958E1,2.662447786E-1,8.470802844E-2,-2.418981421E-1,3.695625027E-1
1.238970558E1,4.328421852E-1,1.293760782E-1,-3.200233752E-1,5.536293774E-1
1.239976258E1,5.084893683E-1,1.591565323E-1,-3.052106237E-1,6.140405233E-1
1.240981958E1,5.248779443E-1,2.127509415E-1,-2.281109923E-1,6.105689513E-1
1.241987658E1,5.002655518E-1,2.411631471E-1,-1.117677730E-1,5.664956495E-1
1.242993258E1,4.473654994E-1,2.034790117E-1,-3.382263422E-2,4.926292408E-1
1.243998958E1,3.048071659E-1,1.181231117E-1,-2.994299750E-2,3.282637065E-1
1.245004658E1,8.541700333E-2,-2.623587191E-2,-9.536228576E-3,8.986281260E-2
1.246010358E1,-5.971235096E-2,-1.436842149E-1,1.339655578E-2,1.561735771E-1
1.247015958E1,-1.680267584E-1,-2.651279604E-1,-4.291856289E-3,3.139175799E-1
1.248021658E1,-2.003653693E-1,-3.557539558E-1,-1.335550833E-1,4.295859851E-1
1.249027358E1,-2.660170296E-1,-4.076105726E-1,-2.591497672E-1,5.514254625E-1
1.250033058E1,-2.122849184E-1,-3.404079384E-1,-5.217932457E-1,6.581873915E-1
1.251038658E1,-1.628677601E-1,-2.081772494E-1,-7.095771611E-1,7.572076479E-1
1.252044358E1,2.916883528E-3,-4.300334752E-2,-7.241267878E-1,7.254084373E-1
1.253050058E1,2.168896008E-1,1.574836439E-1,-7.395511580E-1,7.866245052E-1
1.254055658E1,4.077813113E-1,3.651755744E-1,-7.579815817E-1,9.349731954E-1
1.255061358E1,6.154524842E-1,5.343378621E-1,-5.924048066E-1,1.007592262E0
1.256067058E1,7.946550259E-1,6.409197396E-1,-2.894512081E-1,1.061148776E0
1.257072758E1,8.795957735E-1,6.574164891E-1,1.018235961E-2,1.098175234E0
1.258078358E1,8.245796138E-1,5.610035044E-1,1.417411852E-1,1.007346532E0
1.259084058E1,6.835500348E-1,4.218257385E-1,1.220155849E-1,8.124440945E-1
1.260089758E1,4.448202065E-1,2.934571356E-1,7.158800941E-2,5.376866649E-1
1.261095458E1,2.018400371E-1,1.575602424E-1,6.544260403E-2,2.642865206E-1
1.262101058E1,-1.370792001E-1,5.046965718E-2,1.157590824E-1,1.863814867E-1
1.263106758E1,-5.046097407E-1,-4.310391963E-2,1.842551573E-1,5.389238362E-1
1.264112458E1,-8.254242441E-1,-1.585180163E-1,2.377519180E-1,8.734867594E-1
1.265118158E1,-1.064549929E0,-2.717856002E-1,2.393902713E-1,1.124473951E0
1.266123758E1,-1.136513658E0,-3.559638709E-1,2.480207982E-1,1.216506428E0
1.267129458E1,-1.060810634E0,-4.018534040E-1,2.545439154E-1,1.162582455E0
1.268135158E1,-9.339734173E-1,-3.698089081E-1,3.287310487E-1,1.056943270E0
1.269140858E1,-8.577122766E-1,-2.950013852E-1,3.777125895E-1,9.825288632E-1
1.270146458E1,-8.218197280E-1,-2.269421339E-1,3.678260807E-1,9.285399416E-1
1.271152158E1,-8.399259236E-1,-1.866600806E-1,3.060122405E-1,9.132146704E-1
1.272157858E1,-9.240889916E-1,-1.843165165E-1,2.325215471E-1,9.705561872E-1
1.273163558E1,-9.901277375E-1,-2.347499210E-1,2.175041066E-1,1.040561626E0
1.274169158E1,-1.083155477E0,-2.586884218E-1,1.554692781E-1,1.124418153E0
1.275174858E1,-1.025782597E0,-2.421027946E-1,5.989306647E-2,1.055666083E0
1.276180558E1,-8.981592214E-1,-2.314982843E-1,3.526923537E-2,9.281839051E-1
1.277186258E1,-7.415611383E-1,-1.484689915E-1,1.181477066E-1,7.654507456E-1
1.278191858E1,-5.694685185E-1,-5.488664389E-2,1.358337798E-1,5.880116946E-1
1.279197558E1,-3.760320997E-1,2.575698495E-2,7.858778436E-2,3.850189634E-1
1.280203258E1,-1.933522189E-1,1.193089271E-1,8.418857642E-3,2.273556196E-1
1.281208958E1,-3.923481703E-4,2.192226398E-1,-3.089727223E-2,2.213896140E-1
1.282214558E1,2.267497605E-1,2.679474878E-1,-5.933754444E-3,3.510648367E-1
1.283220258E1,3.552306300E-1,2.748314148E-1,2.656507015E-2,4.499186705E-1
1.284225958E1,3.685733914E-1,2.337518013E-1,8.397708993E-2,4.444529234E-1
1.285231658E1,2.876642990E-1,1.757398206E-1,1.063631916E-1,3.534803559E-1
1.286237258E1,1.847179279E-1,8.606633663E-2,1.117846934E-1,2.324305162E-1
1.287242958E1,7.522530645E-2,3.650124371E-2,1.791832094E-1,1.977316617E-1
1.288248658E1,-7.204120517E-2,-5.151923239E-2,2.466683006E-1,2.620866595E-1
1.289254358E1,-2.357094491E-1,-1.234657127E-1,3.257150549E-1,4.205865233E-1
1.290259958E1,-4.954658648E-1,-1.263741177E-1,3.361149126E-1,6.119069172E-1
1.291265658E1,-6.675947374E-1,-1.382650155E-1,3.066770689E-1,7.475632231E-1
1.292271358E1,-7.263259256E-1,-8.617100179E-2,3.253904979E-1,8.005334271E-1
1.293277058E1,-7.332268095E-1,-1.875260532E-2,3.225616515E-1,8.012610270E-1
1.294282658E1,-6.807600358E-1,5.791959465E-2,3.400109124E-1,7.631489542E-1
1.295288358E1,-7.486707678E-1,1.111041141E-1,3.580425560E-1,8.372852051E-1
1.296294058E1,-7.682074848E-1,6.468131483E-2,4.383002321E-1,8.868108624E-1
1.297299758E1,-8.813744965E-1,6.953976631E-2,4.776449402E-1,1.004888785E0
1.298305358E1,-9.504786453E-1,1.749603868E-2,4.458723764E-1,1.050008544E0
1.299311058E1,-9.418455237E-1,-6.871589363E-2,4.018440120E-1,1.026291126E0
1.300316758E1,-9.835294470E-1,-8.425253034E-2,3.414925969E-1,1.044531405E0
1.301322458E1,-9.567085612E-1,-1.436561483E-1,2.690152260E-1,1.004140205E0
1.302328058E1,-7.976546475E-1,-1.496904749E-1,2.466964038E-1,8.482448294E-1
1.303333758E1,-6.407273662E-1,-1.100755888E-1,3.023998854E-1,7.170034057E-1
1.304339458E1,-4.701418662E-1,-5.515736997E-2,3.699182510E-1,6.007622011E-1
1.305345158E1,-2.915719932E-1,1.888884544E-2,5.037651104E-1,5.823661238E-1
1.306350758E1,-1.424229705E-1,7.113371730E-2,6.954081881E-1,7.133981051E-1
1.307356458E1,-3.508680224E-2,1.097481447E-1,9.255545962E-1,9.326987989E-1
1.308362158E1,3.152643263E-2,1.052884734E-1,1.123112133E0,1.128477045E0
1.309367858E1,-1.550915480E-2,6.276927531E-2,1.254472171E0,1.256137311E0
1.310373458E1,-1.177480128E-1,-3.444419324E-2,1.312530345E0,1.318251457E0
1.311379158E1,-2.728673351E-1,-1.270214045E-1,1.395974790E0,1.428053442E0
1.312384858E1,-4.799765906E-1,-1.754667556E-1,1.289098213E0,1.386701234E0
1.313390558E1,-6.322474417E-1,-2.118177259E-1,1.125598369E0,1.308271862E0
1.314396158E1,-7.102107069E-1,-1.843118387E-1,1.036326588E0,1.269780650E0
1.315401858E1,-6.700277638E-1,-8.161602080E-2,9.585983813E-1,1.172394659E0
1.316407558E1,-6.176560074E-1,3.935760856E-3,8.615264153E-1,1.060067072E0
1.317413258E1,-8.929607543E-1,-4.249054670E-2,5.950769842E-1,1.073918513E0
1.318418858E1,-8.895117742E-1,2.707260847E-4,4.777678049E-1,1.009699631E0
1.319424517E1,-9.017157903E-1,-4.327173471E-2,3.423965764E-1,9.655046479E-1
1.320430217E1,-9.529689744E-1,-1.072028518E-1,1.348695374E-1,9.684173221E-1
1.321435917E1,-9.565153107E-1,-1.653031254E-1,-5.594615936E-2,9.723048059E-1
1.322441517E1,-9.063312900E-1,-1.631203598E-1,-2.133530220E-2,9.211405181E-1
1.323447217E1,-7.510997012E-1,-7.399183631E-2,1.037950762E-1,7.618392028E-1
1.324452917E1,-4.471494448E-1,5.802133620E-2,3.229943454E-1,5.546480403E-1
1.325458617E1,-1.734930280E-1,1.383679265E-1,5.915019965E-1,6.317595474E-1
1.326464217E1,-3.058123022E-2,1.022730643E-1,8.488438046E-1,8.555295412E-1
1.327469917E1,-6.259707481E-2,4.754429519E-2,1.006492925E0,1.009557755E0
1.328475617E1,-2.802017900E-1,-6.253187835E-2,1.059060563E0,1.097284172E0
1.329481317E1,-5.814623272E-1,-1.846328509E-1,9.612460005E-1,1.138499715E0
1.330486917E1,-7.376505205E-1,-2.452380717E-1,8.551003253E-1,1.155623887E0
1.331492617E1,-8.124331927E-1,-3.105274969E-1,7.634639311E-1,1.157303846E0
1.332498317E1,-7.800539437E-1,-3.285649878E-1,6.828787744E-1,1.087548862E0
1.333504017E1,-7.883520198E-1,-2.524061733E-1,6.231050277E-1,1.036082844E0
1.334509617E1,-8.286820203E-1,-1.118969965E-1,5.810354805E-1,1.018251962E0
1.335515317E1,-9.153295702E-1,1.491098464E-2,5.124231191E-1,1.049108199E0
1.336521017E1,-9.882624757E-1,1.005417037E-1,4.717112223E-1,1.099673966E0
1.337526617E1,-1.033847661E0,2.637211204E-2,4.682695878E-1,1.135258949E0
1.338532317E1,-1.117652587E0,-1.804906833E-1,4.861082367E-1,1.232081739E0
1.339538017E1,-1.181785726E0,-3.857981193E-1,5.475250510E-1,1.358396618E0
1.340543717E1,-1.319562206E0,-5.800525635E-1,6.048114288E-1,1.563170578E0
1.341549317E1,-1.464001881E0,-7.392213750E-1,5.972112544E-1,1.745397099E0
1.342555017E1,-1.632315446E0,-9.115990466E-1,5.517888407E-1,1.949342828E0
1.343560717E1,-1.754210596E0,-1.015818649E0,4.283085465E-1,2.071856789E0
1.344566417E1,-1.883636961E0,-1.033175524E0,3.150620127E-1,2.171359927E0
1.345572017E1,-1.953805887E0,-9.323081303E-1,3.799345315E-1,2.197932243E0
1.346577717E1,-1.881744802E0,-6.816789258E-1,3.940836239E-1,2.039841062E0
1.347583417E1,-1.701910176E0,-4.798733872E-1,3.895075929E-1,1.810660896E0
1.348589117E1,-1.422323805E0,-4.292294830E-1,4.951948464E-1,1.566033490E0
1.349594817E1,-1.161471914E0,-4.465974677E-1,6.609704268E-1,1.409023850E0
1.350600417E1,-8.745469952E-1,-3.880112904E-1,7.421753883E-1,1.210871387E0
1.351606117E1,-7.177764192E-1,-3.881393445E-1,8.222705483E-1,1.158440328E0
1.352611817E1,-4.679187548E-1,-4.803499353E-1,8.814566499E-1,1.107542255E0
1.353617417E1,-7.788783610E-2,-7.079288310E-1,1.025827328E0,1.248820024E0
1.354623117E1,2.233420032E-1,-1.058993320E0,1.260718752E0,1.661553572E0
1.355628817E1,5.775821149E-1,-1.224246159E0,1.495656953E0,2.017267825E0
1.356634517E1,9.472960058E-1,-1.133627765E0,1.680719574E0,2.237699694E0
1.357640117E1,1.251843263E0,-9.415976018E-1,1.944394501E0,2.496875563E0
1.358645817E1,1.349585904E0,-6.859000307E-1,2.101758862E0,2.590218385E0
1.359651517E1,1.331162790E0,-5.696059281E-1,2.010209591E0,2.477375201E0
1.360657217E1,1.184478661E0,-6.440398139E-1,1.759807844E0,2.216912408E0
1.361662817E1,8.652396896E-1,-8.503553098E-1,1.413020154E0,1.862355989E0
1.362668517E1,3.937202194E-1,-1.037313014E0,8.583964008E-1,1.402810850E0
1.363674217E1,-1.065353921E-1,-1.143290289E0,2.939487402E-1,1.185271419E0
1.364679917E1,-3.728137922E-1,-1.143980260E0,-2.331086075E-1,1.225569493E0
1.365685517E1,-4.957637805E-1,-1.186213530E0,-7.544831926E-1,1.490680768E0
1.366691217E1,-6.968515733E-1,-1.277082185E0,-1.242958565E0,1.913501245E0
1.367696917E1,-8.616041833E-1,-1.278986623E0,-1.770315875E0,2.347804687E0
1.368702617E1,-8.921427289E-1,-1.128257098E0,-2.168072866E0,2.601811422E0
1.369708217E1,-8.197080061E-1,-8.982112616E-1,-2.233186875E0,2.542799304E0
1.370713917E1,-8.222877976E-1,-6.913730246E-1,-2.085250711E0,2.345724708E0
1.371719617E1,-8.615840104E-1,-5.083083969E-1,-1.877462009E0,2.127338249E0
1.372725317E1,-1.014506826E0,-3.642710102E-1,-1.377384445E0,1.749029839E0
1.373730917E1,-1.129509571E0,-3.353296316E-1,-1.002934017E0,1.547292628E0
1.374736617E1,-1.200609375E0,-5.343606663E-1,-8.428243884E-1,1.561203748E0
1.375742317E1,-1.270838235E0,-8.590337473E-1,-9.408444804E-1,1.799488020E0
1.376748017E1,-1.424133226E0,-1.153253360E0,-1.062679697E0,2.118357122E0
1.377753617E1,-1.630435274E0,-1.286720150E0,-1.104549562E0,2.352445039E0
1.378759317E1,-1.837802976E0,-1.294944844E0,-1.075207064E0,2.492081892E0
1.379765017E1,-1.980223608E0,-1.104808593E0,-1.033150381E0,2.491844151E0
1.380770717E1,-1.921226956E0,-7.945570850E-1,-1.119310565E0,2.361205226E0
1.381776317E1,-1.733888014E0,-5.029014766E-1,-1.066551138E0,2.096856903E0
1.382782017E1,-1.354676783E0,-3.171430367E-1,-1.266872069E0,1.881673120E0
1.383787717E1,-7.702738908E-1,-1.802825224E-1,-1.401619984E0,1.609460231E0
1.384793417E1,-6.927371800E-2,-6.219683290E-3,-1.349952525E0,1.351743079E0
1.385799017E1,6.549551037E-1,2.669587237E-1,-1.295253284E0,1.475775802E0
1.386804717E1,1.091827482E0,6.116743058E-1,-1.157738174E0,1.704872543E0
1.387810417E1,1.399076445E0,8.631648052E-1,-1.011641398E0,1.930255605E0
1.388816117E1,1.495250571E0,1.085821515E0,-9.042748243E-1,2.057302990E0
1.389821717E1,1.144622577E0,1.279577191E0,-8.804959524E-1,1.929443380E0
1.390827417E1,6.059411108E-1,1.311403002E0,-9.328799880E-1,1.719653318E0
1.391833117E1,4.905696988E-1,1.003430738E0,-1.021409172E0,1.513541731E0
1.392838817E1,5.823873568E-1,6.278325015E-1,-9.117525360E-1,1.250856255E0
1.393844417E1,6.228451189E-1,3.585389847E-1,-6.572068664E-1,9.738619569E-1
1.394850117E1,6.955482289E-1,2.176772207E-1,-4.032277921E-1,8.329245845E-1
1.395855817E1,7.575515190E-1,1.372663110E-1,-2.569287023E-1,8.116271940E-1
1.396861517E1,6.279512000E-1,1.136529154E-1,-2.613848653E-1,6.896098481E-1
1.397867117E1,4.799859461E-1,2.142700481E-1,-3.189898798E-1,6.148599071E-1
1.398872817E1,3.366399926E-1,4.693478143E-1,-5.093869159E-1,7.701226431E-1
1.399878517E1,3.835060108E-1,8.040324980E-1,-7.588478467E-1,1.170211593E0
1.400884217E1,4.712911364E-1,1.127627937E0,-9.787554878E-1,1.565765757E0
1.401889817E1,5.338431877E-1,1.541724826E0,-1.216379608E0,2.035063473E0
1.402895517E1,5.017466515E-1,2.019981458E0,-1.335082178E0,2.472755390E0
1.403901217E1,5.782375878E-1,2.469718296E0,-1.186122021E0,2.800134393E0
1.404906917E1,7.295585588E-1,2.734582547E0,-9.663272309E-1,2.990649714E0
1.405912517E1,9.030977798E-1,2.741132598E0,-7.266086385E-1,2.976130648E0
1.406918217E1,1.014585764E0,2.555857138E0,-5.039586532E-1,2.795668848E0
1.407923917E1,9.617783895E-1,2.342219759E0,-3.789244249E-1,2.560194287E0
1.408929617E1,9.479815918E-1,2.199517291E0,-1.594588333E-1,2.400410909E0
1.409935217E1,8.260484344E-1,2.192396552E0,-2.590316534E-3,2.342854107E0
1.410940917E1,6.939232877E-1,2.155357949E0,6.645243645E-2,2.265284385E0
1.411946617E1,5.090050927E-1,2.092283449E0,1.600552493E-1,2.159248457E0
1.412952317E1,3.278618601E-1,2.027312697E0,3.176941368E-1,2.078080782E0
1.413957917E1,1.747490099E-1,1.902748293E0,4.956497598E-1,1.973995179E0
1.414963617E1,1.215373009E-2,1.631732771E0,7.411255208E-1,1.792196023E0
1.415969317E1,-1.453878012E-1,1.223015905E0,1.102229679E0,1.652820553E0
1.416975017E1,-2.639503312E-1,7.758758157E-1,1.533466511E0,1.738727293E0
1.417980617E1,-3.123442268E-1,3.555305922E-1,1.927172112E0,1.984427693E0
1.418986317E1,-4.090855327E-1,-7.338840365E-2,2.209126898E0,2.247883111E0
1.419991992E1,-5.099751458E-1,-4.527376288E-1,2.600947942E0,2.688861507E0
1.420997692E1,-6.775727186E-1,-8.198492163E-1,2.922676950E0,3.110192611E0
1.422003292E1,-9.797778735E-1,-1.243772351E0,3.135155411E0,3.512283273E0
1.423008992E1,-1.026330773E0,-1.557036345E0,3.278578548E0,3.771842299E0
1.424014692E1,-1.085746378E0,-1.786123822E0,3.203804354E0,3.825368720E0
1.425020392E1,-1.029000320E0,-1.874885725E0,2.999332193E0,3.683752400E0
1.426025992E1,-8.598234138E-1,-1.751707696E0,2.821240037E0,3.430331107E0
1.427031692E1,-7.561408782E-1,-1.484616825E0,2.575899639E0,3.067750820E0
1.428037392E1,-4.936868495E-1,-1.141933150E0,2.503691204E0,2.795748141E0
1.429043092E1,-2.179087704E-1,-9.382430542E-1,2.479250427E0,2.659787010E0
1.430048692E1,-7.693971008E-2,-8.959489739E-1,2.514231102E0,2.670206419E0
1.431054392E1,2.708722651E-3,-8.934580600E-1,2.529831181E0,2.682968589E0
1.432060092E1,4.170520717E-1,-9.400381494E-1,2.621059440E0,2.815591721E0
1.433065792E1,1.021159788E0,-1.290910265E0,2.389198628E0,2.901290525E0
1.434071392E1,1.640587502E0,-1.847259970E0,1.301590789E0,2.792496254E0
1.435077092E1,1.931671253E0,-2.306501457E0,-2.167855203E-2,3.008616419E0
1.436082792E1,1.976845087E0,-2.598645893E0,-1.079809700E0,3.439021076E0
1.437088492E1,2.015456883E0,-2.816296801E0,-1.736724790E0,3.874249232E0
1.438094092E1,1.947834711E0,-2.778597463E0,-2.151047966E0,4.017669881E0
1.439099792E1,1.696530738E0,-2.163680876E0,-2.191611417E0,3.516090454E0
1.440105492E1,1.099647841E0,-1.076045555E0,-1.733292182E0,2.317628357E0
1.441111192E1,4.187667677E-1,-2.318245590E-2,-1.649406565E0,1.701894547E0
1.442116792E1,-5.111586222E-1,7.618705648E-1,-2.491120567E0,2.654696136E0
1.443122492E1,-1.878492580E0,1.529124076E0,-3.686309865E0,4.410876924E0
1.444128192E1,-2.726148523E0,2.328820279E0,-4.718105446E0,5.925859319E0
1.445133892E1,-2.538832093E0,2.929146309E0,-5.252649130E0,6.528084664E0
1.446139492E1,-1.735071198E0,3.143284795E0,-5.454987935E0,6.530513359E0
1.447145192E1,-6.602240297E-1,2.979288522E0,-5.334354613E0,6.145518286E0
1.448150892E1,6.066573948E-2,2.316100246E0,-4.946566687E0,5.462281819E0
1.449156592E1,2.489767814E-1,1.187012259E0,-4.342290863E0,4.508489490E0
1.450162192E1,3.289196214E-1,-2.922134328E-1,-3.276936942E0,3.306341260E0
1.451167892E1,2.814481241E-1,-1.748989910E0,-2.143773445E0,2.780996824E0
1.452173592E1,4.152897209E-2,-2.924753881E0,-1.474841596E0,3.275830834E0
1.453179292E1,-1.258481607E-1,-3.512813036E0,-1.178773533E0,3.707451986E0
1.454184892E1,-1.910802832E-1,-3.043590937E0,-1.123314592E0,3.249891251E0
1.455190592E1,-3.204756573E-1,-1.737053989E0,-1.062484692E0,2.061294479E0
1.456196292E1,-6.168344736E-1,-4.559945279E-1,-9.981606424E-1,1.258864745E0
1.457201992E1,-6.520575160E-1,3.764940298E-1,-1.060547510E0,1.300648984E0
1.458207592E1,-4.609836647E-1,7.522735298E-1,-1.195699760E0,1.485974199E0
1.459213292E1,-2.066838706E-1,8.051651037E-1,-1.380696015E0,1.611623577E0
1.460218992E1,9.398551315E-2,7.353943723E-1,-1.729344581E0,1.881560746E0
1.461224692E1,-6.386796713E-2,6.266034168E-1,-2.258953069E0,2.345118318E0
1.462230292E1,9.054998159E-3,4.677450925E-1,-2.319186991E0,2.365902738E0
1.463235992E1,1.779614702E-1,3.300367320E-1,-2.032406791E0,2.066705566E0
1.464241692E1,3.807648361E-2,2.885022050E-1,-1.675469359E0,1.700553120E0
1.465247392E1,-2.310854709E-1,1.983504188E-1,-1.347096160E0,1.381090673E0
1.466252992E1,-4.630494860E-1,8.512493491E-2,-1.042289652E0,1.143690867E0
1.467258692E1,-6.077090165E-1,-9.897055686E-2,-7.250705284E-1,9.512269398E-1
1.468264392E1,-7.256999812E-1,-2.386757416E-1,-5.389577472E-1,9.349235399E-1
1.469270092E1,-7.892253014E-1,-3.716472727E-1,-4.246060896E-1,9.702002902E-1
1.470275692E1,-8.589907703E-1,-5.250723642E-1,-3.114320612E-1,1.053829237E0
1.471281392E1,-8.638316801E-1,-6.386328936E-1,-2.556824414E-1,1.104278341E0
1.472287092E1,-9.072507647E-1,-6.719316173E-1,-2.752285139E-1,1.162044226E0
1.473292792E1,-8.402302712E-1,-5.642639118E-1,-2.018061963E-1,1.032039927E0
1.474298392E1,-7.771914393E-1,-2.908562940E-1,-1.162186005E-1,8.379323840E-1
1.475304092E1,-7.089553097E-1,2.769416749E-2,-1.835914618E-1,7.328645324E-1
1.476309792E1,-5.609900558E-1,2.582539737E-1,-3.036296097E-1,6.881830407E-1
1.477315492E1,-3.986821666E-1,3.898590106E-1,-4.365730742E-1,7.081903468E-1
1.478321092E1,-2.468358234E-1,4.179899651E-1,-5.222189230E-1,7.129909804E-1
1.479326792E1,-1.451425105E-1,3.095416564E-1,-5.752753884E-1,6.691966511E-1
1.480332492E1,-6.026462048E-2,1.450951481E-1,-6.255491638E-1,6.449776607E-1
1.481338192E1,-4.454788953E-2,-4.744430780E-3,-6.320676398E-1,6.336533164E-1
1.482343792E1,-5.819996864E-2,-6.593378842E-2,-5.753279768E-1,5.820109807E-1
1.483349492E1,-1.414266050E-2,-3.200005710E-2,-4.585702630E-1,4.599029295E-1
1.484355192E1,-1.867805332E-2,1.479941976E-1,-3.078313823E-1,3.420691628E-1
1.485360892E1,-3.113642335E-2,3.210361129E-1,-1.064918486E-1,3.396677442E-1
1.486366492E1,1.522919011E-1,3.076728863E-1,2.343704367E-1,4.156740666E-1
1.487372192E1,2.697896531E-1,1.511762524E-1,6.290194863E-1,7.009324007E-1
1.488377892E1,1.334284911E-1,-7.352055073E-2,9.114902884E-1,9.241336372E-1
1.489383592E1,-1.535566539E-2,-1.820483816E-1,1.074280865E0,1.089704908E0
1.490389192E1,2.632796556E-2,-1.991316068E-1,1.158971352E0,1.176248763E0
1.491394892E1,2.692432308E-1,-2.291348398E-2,1.239854717E0,1.268958890E0
1.492400592E1,4.854197636E-1,1.665830809E-1,1.391311635E0,1.482946505E0
1.493406292E1,6.638665527E-1,3.465983856E-1,1.417505407E0,1.603175231E0
1.494411892E1,7.217227051E-1,4.703096813E-1,1.339797081E0,1.592837430E0
1.495417592E1,6.422262999E-1,4.882653111E-1,1.055034170E0,1.328139576E0
1.496423292E1,3.714820889E-1,4.560266876E-1,7.419871080E-1,9.468390310E-1
1.497428992E1,1.357472044E-1,3.073828644E-1,4.469436228E-1,5.591691433E-1
1.498434592E1,-2.189665318E-2,1.271032655E-1,2.002075128E-1,2.381548901E-1
1.499440292E1,-2.832192457E-1,1.109801531E-2,1.120689412E-1,3.047880487E-1
1.500445992E1,-6.197408321E-1,-1.366190243E-1,1.100235669E-1,6.440874491E-1
1.501451692E1,-9.108459252E-1,-2.709640664E-1,1.517188374E-1,9.623307282E-1
1.502457292E1,-1.065654176E0,-3.072758603E-1,1.897035198E-1,1.125177631E0
1.503462992E1,-1.053447236E0,-2.453941923E-1,1.142359010E-1,1.087666874E0
1.504468692E1,-7.966354778E-1,-2.386587846E-1,1.194960014E-1,8.401579580E-1
1.505474392E1,-3.819173223E-1,-1.747475481E-1,1.694429541E-1,4.528890165E-1
1.506479992E1,-1.302780113E-1,-2.178906441E-2,2.529774463E-1,2.853851991E-1
1.507485692E1,-3.979147196E-2,1.603633976E-1,2.960538475E-1,3.390393209E-1
1.508491392E1,2.409257501E-2,2.104962552E-1,3.556569286E-1,4.139818552E-1
1.509497092E1,-4.836115122E-2,2.451287287E-1,4.033596833E-1,4.744743710E-1
1.510502692E1,-1.525129259E-1,2.363269150E-1,3.800947817E-1,4.728452669E-1
1.511508392E1,-2.582554355E-1,2.157546562E-1,3.135242315E-1,4.599384583E-1
1.512514092E1,-3.388022929E-1,1.164139706E-1,3.474555874E-1,4.990637148E-1
1.513519792E1,-3.195509201E-1,5.534331143E-2,3.262126529E-1,4.599895299E-1
1.514525392E1,-2.465849778E-1,-6.259444356E-3,2.240769982E-1,3.332474052E-1
1.515531092E1,-5.233374953E-2,-3.462370276E-2,9.783678174E-2,1.162310543E-1
1.516536792E1,1.634501427E-2,-7.374683797E-2,2.513601065E-2,7.960888540E-2
1.517542492E1,7.090129048E-2,-1.410851276E-1,-5.133621454E-2,1.660343734E-1
1.518548092E1,5.159027606E-2,-3.581980920E-1,3.584452830E-2,3.636650380E-1
1.519553792E1,-8.187797606E-2,-5.609397697E-1,5.071633659E-2,5.691481134E-1
1.520559504E1,-3.454672417E-1,-7.044661099E-1,3.920675039E-2,7.855935872E-1
1.521565204E1,-6.652684227E-1,-7.068646377E-1,1.425984601E-1,9.811085623E-1
1.522570804E1,-9.103845799E-1,-6.864613634E-1,2.839127985E-1,1.175004580E0
1.523576504E1,-9.842284817E-1,-6.747371113E-1,3.467586724E-1,1.242665462E0
1.524582204E1,-9.485113496E-1,-6.100446868E-1,2.605133379E-1,1.157452159E0
1.525587904E1,-8.261829203E-1,-6.622796184E-1,2.090859798E-1,1.079309714E0
1.526593504E1,-5.290815076E-1,-6.336282617E-1,2.860411850E-1,8.736312582E-1
1.527599204E1,-3.177382833E-1,-5.555638397E-1,3.304999045E-1,7.203047851E-1
1.528604904E1,-1.372858992E-1,-5.365826082E-1,2.535586596E-2,5.544467815E-1
1.529610604E1,-1.660360739E-1,-5.973936510E-1,-5.184854027E-1,8.082538369E-1
1.530616204E1,-3.053743458E-1,-5.992226601E-1,-1.116240412E0,1.303193748E0
1.531621904E1,-4.111294270E-1,-6.097529107E-1,-1.593400179E0,1.754921693E0
1.532627604E1,-3.427073559E-1,-6.590162873E-1,-1.823958231E0,1.969409665E0
1.533633304E1,-7.520630300E-2,-7.105992544E-1,-1.871112517E0,2.002915210E0
1.534638904E1,1.969754460E-1,-6.642226481E-1,-1.739219213E0,1.872131011E0
1.535644604E1,4.909798810E-1,-5.550972319E-1,-1.373830215E0,1.560962408E0
1.536650304E1,8.222193852E-1,-3.354793203E-1,-9.274174460E-1,1.284014880E0
1.537656004E1,1.178753944E0,-9.346891165E-2,-4.716177034E-1,1.273035961E0
1.538661604E1,1.787031603E0,3.067613053E-1,-2.374659526E-1,1.828653747E0
1.539667304E1,2.414391649E0,7.191396976E-1,-8.787268773E-3,2.519231263E0
1.540673004E1,2.732402997E0,1.167571437E0,1.732869867E-1,2.976453860E0
1.541678704E1,2.700853761E0,1.725169523E0,1.649506845E-2,3.204854600E0
1.542684304E1,2.446410710E0,2.092377589E0,-3.894970679E-1,3.242634315E0
1.543690004E1,2.251410745E0,2.236776334E0,-1.076745978E0,3.351328187E0
1.544695704E1,2.000276634E0,2.297459323E0,-1.794325712E0,3.535396825E0
1.545701404E1,1.499769300E0,1.979940310E0,-2.196603624E0,3.315801421E0
1.546707004E1,8.197363651E-1,1.570441087E0,-2.161281763E0,2.794528901E0
1.547712704E1,3.131008565E-2,1.123773453E0,-2.016519907E0,2.308722510E0
1.548718404E1,-8.494943073E-1,4.721299195E-1,-1.953958061E0,2.182315134E0
1.549724104E1,-1.553333303E0,-1.588694340E-1,-1.797442131E0,2.380941424E0
1.550729704E1,-1.935659638E0,-7.486330533E-1,-1.513046572E0,2.568372951E0
1.551735404E1,-2.099798583E0,-1.122816848E0,-1.103026947E0,2.624221829E0
1.552741104E1,-2.113159763E0,-1.172301834E0,-6.450215614E-1,2.501157450E0
1.553746804E1,-1.933790868E0,-1.060538739E0,-1.352143769E-1,2.209654377E0
1.554752404E1,-1.486182709E0,-7.567741317E-1,3.574274290E-1,1.705637857E0
1.555758104E1,-8.959656385E-1,-3.973832077E-1,7.390282707E-1,1.227530295E0
1.556763804E1,-1.666029614E-1,-5.425806820E-2,8.167016602E-1,8.352856316E-1
1.557769504E1,5.749201700E-1,2.791484141E-1,5.998177604E-1,8.764920905E-1
1.558775104E1,1.152191505E0,4.998796356E-1,1.139962931E-1,1.261118579E0
1.559780804E1,1.487831624E0,5.681751144E-1,-3.429814442E-1,1.629141545E0
1.560786504E1,1.409067583E0,4.745062280E-1,-6.923150110E-1,1.640099902E0
1.561792204E1,9.161338547E-1,3.673945928E-1,-7.229906738E-1,1.223517691E0
1.562797804E1,3.363909012E-1,1.971722049E-1,-5.771318793E-1,6.965033546E-1
1.563803504E1,-2.174214050E-1,9.693397164E-2,-3.293888605E-1,4.064053194E-1
1.564809204E1,-7.535184020E-1,-2.430278242E-2,-6.685940266E-2,7.568690687E-1
1.565814904E1,-1.101489129E0,-2.599636996E-1,9.210183263E-2,1.135492041E0
1.566820504E1,-1.402887368E0,-4.415571678E-1,2.409229727E-1,1.490338746E0
1.567826204E1,-1.541778036E0,-5.378023374E-1,3.736430736E-1,1.675088061E0
1.568831904E1,-1.501619943E0,-4.952246672E-1,4.148460634E-1,1.634688711E0
1.569837604E1,-1.290277888E0,-3.603656548E-1,4.367579193E-1,1.409055682E0
1.570843204E1,-9.884045631E-1,-1.374592692E-1,3.502306759E-1,1.057591678E0
1.571848904E1,-6.890522647E-1,3.060140312E-2,3.168721645E-1,7.590371782E-1
1.572854604E1,-4.293955439E-1,1.198690903E-1,3.378380871E-1,5.593600853E-1
1.573860304E1,-3.491600507E-1,1.154754925E-1,2.964772224E-1,4.723833971E-1
1.574865904E1,-3.387099069E-1,5.534857392E-2,2.378015828E-1,4.175373738E-1
1.575871604E1,-4.336537787E-1,-4.648536444E-4,2.295369820E-1,4.906557266E-1
1.576877304E1,-5.077727920E-1,-8.203760505E-2,2.998124743E-1,5.953577888E-1
1.577883004E1,-5.547414288E-1,-1.446150917E-1,4.015692294E-1,6.999352995E-1
1.578888604E1,-5.987110287E-1,-1.646529150E-1,4.720072742E-1,7.799720156E-1
1.579894304E1,-6.043383890E-1,-1.512399870E-1,5.519104993E-1,8.322881841E-1
1.580900004E1,-5.105718541E-1,-1.044394577E-1,6.221121705E-1,8.115508432E-1
1.581905704E1,-3.824745619E-1,-8.551903725E-2,6.989996941E-1,8.013743624E-1
1.582911304E1,-2.562276211E-1,-6.363232434E-2,6.970372224E-1,7.453606885E-1
1.583917004E1,-1.717414945E-1,-3.594751239E-2,6.987131806E-1,7.204078521E-1
1.584922704E1,-1.042426988E-1,-2.945417941E-2,6.682094260E-1,6.769327336E-1
1.585928404E1,-7.626406431E-2,-1.501915812E-2,7.507427287E-1,7.547558727E-1
1.586934004E1,-1.338456899E-1,3.376065373E-2,7.951475076E-1,8.070402774E-1
1.587939704E1,-1.203438842E-1,9.450445354E-2,7.031895165E-1,7.196452170E-1
1.588945404E1,-5.699602693E-2,1.725624436E-1,6.350076199E-1,6.605005839E-1
1.589951104E1,-8.215308756E-2,1.825494879E-1,7.758095960E-1,8.012203034E-1
1.590956704E1,-7.706834882E-2,1.802532864E-1,9.032707112E-1,9.242990616E-1
1.591962404E1,-6.159486204E-2,1.066438580E-1,9.526377296E-1,9.605651896E-1
1.592968104E1,7.497299910E-3,-9.815136194E-3,9.116090599E-1,9.116927249E-1
1.593973804E1,1.694140103E-1,-1.317295825E-1,7.976082353E-1,8.259737809E-1
1.594979404E1,2.319415033E-1,-2.110236740E-1,8.321582631E-1,8.892779244E-1
1.595985104E1,2.732707930E-1,-2.396463794E-1,9.495013563E-1,1.016690778E0
1.596990804E1,2.640886179E-1,-2.225999916E-1,1.034024028E0,1.090183124E0
1.597996504E1,2.825947630E-1,-1.418101823E-1,9.753880032E-1,1.025354419E0
1.599002104E1,5.811939400E-1,-9.961842835E-2,6.889025760E-1,9.068059254E-1
1.600007804E1,7.075572404E-1,-1.294719726E-1,6.500162530E-1,9.694954200E-1
1.601013504E1,7.946342683E-1,-1.898514909E-1,6.242861652E-1,1.028212247E0
1.602019204E1,7.834608239E-1,-2.208657074E-1,5.595761991E-1,9.877844126E-1
1.603024804E1,8.566211861E-1,-2.321718836E-1,2.722317427E-1,9.283392493E-1
1.604030504E1,9.441616058E-1,-2.855873680E-1,-1.165168633E-1,9.932660581E-1
1.605036204E1,8.788777354E-1,-3.890427393E-1,-2.245757657E-1,9.870231007E-1
1.606041904E1,5.433718103E-1,-5.234205258E-1,-2.017909570E-1,7.809875552E-1
1.607047504E1,8.532958746E-2,-6.351526308E-1,-3.584716686E-1,7.343037111E-1
1.608053204E1,-1.824886769E-1,-7.036241108E-1,-7.003199223E-1,1.009374559E0
1.609058904E1,-2.671265388E-1,-9.105073714E-1,-1.111943512E0,1.461779270E0
1.610064604E1,-4.115489647E-1,-1.280802183E0,-1.376709968E0,1.924878469E0
1.611070204E1,-4.939830109E-1,-1.728659726E0,-1.290627698E0,2.213143357E0
1.612075904E1,-8.407234839E-1,-2.244451389E0,-1.158468491E0,2.662034421E0
1.613081604E1,-1.222152564E0,-2.674454459E0,-1.325880708E0,3.225573312E0
1.614087304E1,-1.390376373E0,-2.862610257E0,-1.180506063E0,3.394300886E0
1.615092904E1,-1.258951138E0,-2.783051287E0,-5.180410874E-1,3.098176722E0
1.616098604E1,-8.677738729E-1,-2.466785333E0,4.002756791E-1,2.645426618E0
1.617104304E1,-4.598007730E-1,-2.041008046E0,6.784288971E-1,2.199408184E0
1.618110004E1,-2.766346961E-2,-1.595042077E0,5.708940697E-1,1.694356673E0
1.619115604E1,3.162466586E-1,-1.147128401E0,4.106639886E-1,1.258793243E0
1.620121296E1,7.520191759E-2,-9.693671983E-1,-2.580089754E-1,1.005930775E0
1.621126996E1,1.179602668E-1,-8.220822680E-1,-3.021297258E-1,8.837512383E-1
1.622132696E1,3.330962875E-1,-4.920619082E-1,-2.110494018E-2,5.945784026E-1
1.623138396E1,4.691592416E-1,-1.525532717E-1,-1.060275614E-2,4.934524426E-1
1.624143996E1,7.962062922E-1,2.881730068E-1,-2.005203205E-1,8.701704089E-1
1.625149696E1,1.088716471E0,7.480418998E-1,-3.648846754E-1,1.370405438E0
1.626155396E1,1.361970307E0,1.356724185E0,-1.462555280E-1,1.927966367E0
1.627161096E1,1.435441741E0,1.971268305E0,-2.112365127E-2,2.438613936E0
1.628166696E1,1.080429212E0,2.274117823E0,-3.541293070E-1,2.542507959E0
1.629172396E1,6.854860479E-1,2.248138644E0,-6.776086789E-1,2.446052331E0
